Folder: electrochemical_ORR_procesing_autolab/carbon_superP (part 4)

File: O2_0750rpm.txt
Index;Column 2 (V);Column 3 (V);Column 4 (V);Column 5 (V);Column 6 (V/s);Column 7 (V);Time (s);Potential applied (V);WE(1).Current (A);WE(1).Potential (V);Scan;Column 13 (RPM);ω (rad/s)
1;0;0.01;-1;-0.01;0.01;-0.00244;8275.15;-0.0146484;1.70685e-06;-0.0143921;3;750;78.5398
10;;;;;;;8277.35;-0.0366211;5.69458e-07;-0.0363373;3;;
19;;;;;;;8279.54;-0.05859375;-2.39563e-07;-0.0582886;3;;
28;;;;;;;8281.74;-0.0805664;-1.17554e-06;-0.0803223;3;;
37;;;;;;;8283.94;-0.102539;-2.51312e-06;-0.101898;3;;
46;;;;;;;8286.14;-0.124512;-4.81873e-06;-0.124115;3;;
55;;;;;;;8288.33;-0.146484;-8.9447e-06;-0.145996;3;;
64;;;;;;;8290.53;-0.168457;-1.59485e-05;-0.167877;3;;
73;;;;;;;8292.73;-0.19043;-2.80884e-05;-0.189667;3;;
82;;;;;;;8294.92;-0.212402;-4.8468e-05;-0.211823;3;;
91;;;;;;;8297.12;-0.234375;-8.32825e-05;-0.233795;3;;
100;;;;;;;8299.32;-0.256348;-0.000140594;-0.255615;3;;
109;;;;;;;8301.52;-0.27832;-0.000231537;-0.277374;3;;
118;;;;;;;8303.71;-0.300293;-0.000358551;-0.299622;3;;
127;;;;;;;8305.91;-0.322266;-0.000511475;-0.321564;3;;
136;;;;;;;8308.11;-0.344238;-0.000661621;-0.343414;3;;
145;;;;;;;8310.31;-0.366211;-0.000768738;-0.365326;3;;
154;;;;;;;8312.5;-0.388184;-0.000806885;-0.387238;3;;
163;;;;;;;8314.7;-0.410156;-0.000800476;-0.409241;3;;
172;;;;;;;8316.9;-0.432129;-0.000804749;-0.431183;3;;
181;;;;;;;8319.09;-0.454102;-0.000815125;-0.453125;3;;
190;;;;;;;8321.29;-0.476074;-0.000827332;-0.475006;3;;
199;;;;;;;8323.49;-0.498047;-0.000837097;-0.497009;3;;
208;;;;;;;8325.69;-0.52002;-0.000847473;-0.518951;3;;
217;;;;;;;8327.88;-0.541992;-0.000853271;-0.540833;3;;
226;;;;;;;8330.08;-0.563965;-0.000860291;-0.562805;3;;
235;;;;;;;8332.28;-0.5859375;-0.000864868;-0.584686;3;;
244;;;;;;;8334.48;-0.60791;-0.00086731;-0.606628;3;;
253;;;;;;;8336.67;-0.629883;-0.000867615;-0.62851;3;;
262;;;;;;;8338.87;-0.651855;-0.000863647;-0.650604;3;;
271;;;;;;;8341.07;-0.673828;-0.000861816;-0.672516;3;;
280;;;;;;;8343.26;-0.695801;-0.000856323;-0.694489;3;;
289;;;;;;;8345.46;-0.717773;-0.000854492;-0.716461;3;;
298;;;;;;;8347.66;-0.739746;-0.00085083;-0.738434;3;;
307;;;;;;;8349.86;-0.761719;-0.000850525;-0.761414;3;;
316;;;;;;;8352.05;-0.783691;-0.000848083;-0.782776;3;;
325;;;;;;;8354.25;-0.805664;-0.00085022;-0.805054;3;;
334;;;;;;;8356.45;-0.827637;-0.000853882;-0.827026;3;;
343;;;;;;;8358.65;-0.849609;-0.00085968;-0.849304;3;;
352;;;;;;;8360.84;-0.871582;-0.000864563;-0.870972;3;;
361;;;;;;;8363.04;-0.893555;-0.000869751;-0.892639;3;;
370;;;;;;;8365.24;-0.915527;-0.000873413;-0.914917;3;;
379;;;;;;;8367.43;-0.9375;-0.000871887;-0.93689;3;;
388;;;;;;;8369.63;-0.959473;-0.000872803;-0.959167;3;;
397;;;;;;;8371.83;-0.981445;-0.000868835;-0.980835;3;;
406;;;;;;;8374.03;-0.998535;-0.000863953;-0.99762;3;;
415;;;;;;;8376.22;-0.9765625;-0.000839539;-0.976257;3;;
424;;;;;;;8378.42;-0.95459;-0.000831299;-0.954285;3;;
433;;;;;;;8380.62;-0.932617;-0.000819092;-0.931702;3;;
442;;;;;;;8382.82;-0.910645;-0.000812378;-0.910339;3;;
451;;;;;;;8385.01;-0.888672;-0.000805359;-0.887756;3;;
460;;;;;;;8387.21;-0.866699;-0.00079895;-0.865479;3;;
469;;;;;;;8389.41;-0.844727;-0.000794373;-0.843811;3;;
478;;;;;;;8391.6;-0.822754;-0.000793457;-0.822144;3;;
487;;;;;;;8393.8;-0.800781;-0.000792542;-0.799866;3;;
496;;;;;;;8396;-0.778809;-0.000796509;-0.778198;3;;
505;;;;;;;8398.2;-0.756836;-0.000801697;-0.75592;3;;
514;;;;;;;8400.39;-0.734863;-0.000809021;-0.733582;3;;
523;;;;;;;8402.59;-0.712891;-0.000818787;-0.711548;3;;
532;;;;;;;8404.79;-0.690918;-0.00082428;-0.689667;3;;
541;;;;;;;8406.99;-0.668945;-0.000830994;-0.667694;3;;
550;;;;;;;8409.18;-0.646973;-0.000834045;-0.645721;3;;
559;;;;;;;8411.38;-0.625;-0.000836792;-0.623749;3;;
568;;;;;;;8413.58;-0.603027;-0.000834961;-0.601776;3;;
577;;;;;;;8415.77;-0.581055;-0.000830688;-0.579895;3;;
586;;;;;;;8417.97;-0.559082;-0.000823059;-0.557953;3;;
595;;;;;;;8420.17;-0.537109;-0.000818481;-0.53595;3;;
604;;;;;;;8422.37;-0.515137;-0.000811462;-0.51413;3;;
613;;;;;;;8424.56;-0.493164;-0.000804138;-0.492096;3;;
622;;;;;;;8426.76;-0.471191;-0.000797119;-0.470154;3;;
631;;;;;;;8428.96;-0.449219;-0.000783997;-0.448242;3;;
640;;;;;;;8431.15;-0.427246;-0.000765686;-0.426331;3;;
649;;;;;;;8433.35;-0.405273;-0.000733948;-0.404327;3;;
658;;;;;;;8435.55;-0.383301;-0.000685425;-0.382416;3;;
667;;;;;;;8437.75;-0.361328;-0.000613403;-0.360443;3;;
676;;;;;;;8439.94;-0.339355;-0.000523682;-0.338623;3;;
685;;;;;;;8442.14;-0.317383;-0.000420563;-0.31665;3;;
694;;;;;;;8444.34;-0.29541;-0.000318939;-0.294647;3;;
703;;;;;;;8446.54;-0.2734375;-0.000227081;-0.272797;3;;
712;;;;;;;8448.73;-0.251465;-0.0001539;-0.250854;3;;
721;;;;;;;8450.93;-0.229492;-9.94568e-05;-0.228943;3;;
730;;;;;;;8453.13;-0.20752;-6.23779e-05;-0.20694;3;;
739;;;;;;;8455.32;-0.185547;-3.79974e-05;-0.185059;3;;
748;;;;;;;8457.52;-0.163574;-2.24396e-05;-0.163116;3;;
757;;;;;;;8459.72;-0.141602;-1.2674e-05;-0.141235;3;;
766;;;;;;;8461.92;-0.119629;-6.50024e-06;-0.119171;3;;
775;;;;;;;8464.11;-0.09765625;-2.64679e-06;-0.0973206;3;;
784;;;;;;;8466.31;-0.0756836;-7.01904e-08;-0.0753784;3;;
793;;;;;;;8468.51;-0.0537109;1.73828e-06;-0.0536499;3;;
802;;;;;;;8470.71;-0.0317383;3.03406e-06;-0.0315643;3;;
811;;;;;;;8472.9;-0.009765625;3.81165e-06;-0.00948792;3;;
820;;;;;;;8475.1;0.012207;4.09546e-06;0.0124725;3;;
829;;;;;;;8477.3;-0.009765625;1.67542e-06;-0.00951843;3;;
838;;;;;;;;;;;;;
847;;;;;;;;;;;;;
856;;;;;;;;;;;;;
865;;;;;;;;;;;;;
874;;;;;;;;;;;;;
883;;;;;;;;;;;;;
892;;;;;;;;;;;;;
901;;;;;;;;;;;;;
910;;;;;;;;;;;;;
919;;;;;;;;;;;;;
928;;;;;;;;;;;;;
937;;;;;;;;;;;;;
946;;;;;;;;;;;;;
955;;;;;;;;;;;;;
964;;;;;;;;;;;;;
973;;;;;;;;;;;;;
982;;;;;;;;;;;;;
991;;;;;;;;;;;;;
1000;;;;;;;;;;;;;
1009;;;;;;;;;;;;;
1018;;;;;;;;;;;;;
1027;;;;;;;;;;;;;
1036;;;;;;;;;;;;;
1045;;;;;;;;;;;;;
1054;;;;;;;;;;;;;
1063;;;;;;;;;;;;;
1072;;;;;;;;;;;;;
1081;;;;;;;;;;;;;
1090;;;;;;;;;;;;;
1099;;;;;;;;;;;;;
1108;;;;;;;;;;;;;
1117;;;;;;;;;;;;;
1126;;;;;;;;;;;;;
1135;;;;;;;;;;;;;
1144;;;;;;;;;;;;;
1153;;;;;;;;;;;;;
1162;;;;;;;;;;;;;
1171;;;;;;;;;;;;;
1180;;;;;;;;;;;;;
1189;;;;;;;;;;;;;
1198;;;;;;;;;;;;;
1207;;;;;;;;;;;;;
1216;;;;;;;;;;;;;
1225;;;;;;;;;;;;;
1234;;;;;;;;;;;;;
1243;;;;;;;;;;;;;
1252;;;;;;;;;;;;;
1261;;;;;;;;;;;;;
1270;;;;;;;;;;;;;
1279;;;;;;;;;;;;;
1288;;;;;;;;;;;;;
1297;;;;;;;;;;;;;
1306;;;;;;;;;;;;;
1315;;;;;;;;;;;;;
1324;;;;;;;;;;;;;
1333;;;;;;;;;;;;;
1342;;;;;;;;;;;;;
1351;;;;;;;;;;;;;
1360;;;;;;;;;;;;;
1369;;;;;;;;;;;;;
1378;;;;;;;;;;;;;
1387;;;;;;;;;;;;;
1396;;;;;;;;;;;;;
1405;;;;;;;;;;;;;
1414;;;;;;;;;;;;;
1423;;;;;;;;;;;;;
1432;;;;;;;;;;;;;
1441;;;;;;;;;;;;;
1450;;;;;;;;;;;;;
1459;;;;;;;;;;;;;
1468;;;;;;;;;;;;;
1477;;;;;;;;;;;;;
1486;;;;;;;;;;;;;
1495;;;;;;;;;;;;;
1504;;;;;;;;;;;;;
1513;;;;;;;;;;;;;
1522;;;;;;;;;;;;;
1531;;;;;;;;;;;;;
1540;;;;;;;;;;;;;
1549;;;;;;;;;;;;;
1558;;;;;;;;;;;;;
1567;;;;;;;;;;;;;
1576;;;;;;;;;;;;;
1585;;;;;;;;;;;;;
1594;;;;;;;;;;;;;
1603;;;;;;;;;;;;;
1612;;;;;;;;;;;;;
1621;;;;;;;;;;;;;
1630;;;;;;;;;;;;;
1639;;;;;;;;;;;;;
1648;;;;;;;;;;;;;
1657;;;;;;;;;;;;;
1666;;;;;;;;;;;;;
1675;;;;;;;;;;;;;
1684;;;;;;;;;;;;;
1693;;;;;;;;;;;;;
1702;;;;;;;;;;;;;
1711;;;;;;;;;;;;;
1720;;;;;;;;;;;;;
1729;;;;;;;;;;;;;
1738;;;;;;;;;;;;;
1747;;;;;;;;;;;;;
1756;;;;;;;;;;;;;
1765;;;;;;;;;;;;;
1774;;;;;;;;;;;;;
1783;;;;;;;;;;;;;
1792;;;;;;;;;;;;;
1801;;;;;;;;;;;;;
1810;;;;;;;;;;;;;
1819;;;;;;;;;;;;;
1828;;;;;;;;;;;;;
1837;;;;;;;;;;;;;
1846;;;;;;;;;;;;;
1855;;;;;;;;;;;;;
1864;;;;;;;;;;;;;
1873;;;;;;;;;;;;;
1882;;;;;;;;;;;;;
1891;;;;;;;;;;;;;
1900;;;;;;;;;;;;;
1909;;;;;;;;;;;;;
1918;;;;;;;;;;;;;
1927;;;;;;;;;;;;;
1936;;;;;;;;;;;;;
1945;;;;;;;;;;;;;
1954;;;;;;;;;;;;;
1963;;;;;;;;;;;;;
1972;;;;;;;;;;;;;
1981;;;;;;;;;;;;;
1990;;;;;;;;;;;;;
1999;;;;;;;;;;;;;
2008;;;;;;;;;;;;;
2017;;;;;;;;;;;;;
2026;;;;;;;;;;;;;
2035;;;;;;;;;;;;;
2044;;;;;;;;;;;;;
2053;;;;;;;;;;;;;
2062;;;;;;;;;;;;;
2071;;;;;;;;;;;;;
2080;;;;;;;;;;;;;
2089;;;;;;;;;;;;;
2098;;;;;;;;;;;;;
2107;;;;;;;;;;;;;
2116;;;;;;;;;;;;;
2125;;;;;;;;;;;;;
2134;;;;;;;;;;;;;
2143;;;;;;;;;;;;;
2152;;;;;;;;;;;;;
2161;;;;;;;;;;;;;
2170;;;;;;;;;;;;;
2179;;;;;;;;;;;;;
2188;;;;;;;;;;;;;
2197;;;;;;;;;;;;;
2206;;;;;;;;;;;;;
2215;;;;;;;;;;;;;
2224;;;;;;;;;;;;;
2233;;;;;;;;;;;;;
2242;;;;;;;;;;;;;
2251;;;;;;;;;;;;;
2260;;;;;;;;;;;;;
2269;;;;;;;;;;;;;
2278;;;;;;;;;;;;;
2287;;;;;;;;;;;;;
2296;;;;;;;;;;;;;
2305;;;;;;;;;;;;;
2314;;;;;;;;;;;;;
2323;;;;;;;;;;;;;
2332;;;;;;;;;;;;;
2341;;;;;;;;;;;;;
2350;;;;;;;;;;;;;
2359;;;;;;;;;;;;;
2368;;;;;;;;;;;;;
2377;;;;;;;;;;;;;
2386;;;;;;;;;;;;;
2395;;;;;;;;;;;;;
2404;;;;;;;;;;;;;
2413;;;;;;;;;;;;;
2422;;;;;;;;;;;;;
2431;;;;;;;;;;;;;
2440;;;;;;;;;;;;;
2449;;;;;;;;;;;;;
2458;;;;;;;;;;;;;
2467;;;;;;;;;;;;;
2476;;;;;;;;;;;;;
2485;;;;;;;;;;;;;
2494;;;;;;;;;;;;;
2495;;;;;;;;;;;;;

File: O2_1000rpm.txt
Index;Column 2 (V);Column 3 (V);Column 4 (V);Column 5 (V);Column 6 (V/s);Column 7 (V);Time (s);Potential applied (V);WE(1).Current (A);WE(1).Potential (V);Scan;Column 13 (RPM);ω (rad/s)
1;0.1;0.11;-0.9;-0.01;0.01;-0.00244;10384.4;-0.014801;-9.65576e-07;-0.0144562;3;1000;104.72
10;;;;;;;10386.6;-0.0367737;-1.01044e-05;-0.0364227;3;;
19;;;;;;;10388.8;-0.0587463;-5.87769e-05;-0.0584106;3;;
28;;;;;;;10391;-0.080719;-0.000181152;-0.0801392;3;;
37;;;;;;;10393.2;-0.102692;-0.000350281;-0.102264;3;;
46;;;;;;;10395.4;-0.124664;-0.000508728;-0.124176;3;;
55;;;;;;;10397.6;-0.146637;-0.000588074;-0.146149;3;;
64;;;;;;;10399.8;-0.16861;-0.000620728;-0.168091;3;;
73;;;;;;;10402;-0.190582;-0.000649109;-0.190002;3;;
82;;;;;;;10404.2;-0.212555;-0.000670776;-0.211884;3;;
91;;;;;;;10406.4;-0.234528;-0.00068573;-0.233856;3;;
100;;;;;;;10408.6;-0.2565;-0.00069458;-0.255768;3;;
109;;;;;;;10410.8;-0.278473;-0.000701904;-0.277679;3;;
118;;;;;;;10413;-0.300446;-0.000707397;-0.299652;3;;
127;;;;;;;10415.2;-0.322418;-0.000711365;-0.321564;3;;
136;;;;;;;10417.3;-0.344391;-0.000716553;-0.343536;3;;
145;;;;;;;10419.5;-0.366364;-0.000717468;-0.365448;3;;
154;;;;;;;10421.7;-0.388336;-0.000719299;-0.38736;3;;
163;;;;;;;10423.9;-0.410309;-0.000722351;-0.409332;3;;
172;;;;;;;10426.1;-0.432281;-0.000724792;-0.431305;3;;
181;;;;;;;10428.3;-0.454254;-0.000725708;-0.453217;3;;
190;;;;;;;10430.5;-0.476227;-0.000726929;-0.475128;3;;
199;;;;;;;10432.7;-0.498199;-0.00072998;-0.49707;3;;
208;;;;;;;10434.9;-0.520172;-0.000730896;-0.518982;3;;
217;;;;;;;10437.1;-0.542145;-0.000736694;-0.540955;3;;
226;;;;;;;10439.3;-0.564117;-0.000739441;-0.562897;3;;
235;;;;;;;10441.5;-0.58609;-0.000743713;-0.584778;3;;
244;;;;;;;10443.7;-0.608063;-0.000748291;-0.606689;3;;
253;;;;;;;10445.9;-0.630035;-0.000753174;-0.628693;3;;
262;;;;;;;10448.1;-0.652008;-0.000758667;-0.650665;3;;
271;;;;;;;10450.3;-0.673981;-0.000760803;-0.672638;3;;
280;;;;;;;10452.5;-0.695953;-0.000765686;-0.69458;3;;
289;;;;;;;10454.7;-0.717926;-0.00076416;-0.716553;3;;
298;;;;;;;10456.9;-0.739899;-0.000766296;-0.738525;3;;
307;;;;;;;10459.1;-0.761871;-0.000765076;-0.760803;3;;
316;;;;;;;10461.3;-0.783844;-0.000764771;-0.782471;3;;
325;;;;;;;10463.5;-0.805817;-0.000762024;-0.804749;3;;
334;;;;;;;10465.7;-0.827789;-0.000756836;-0.826721;3;;
343;;;;;;;10467.9;-0.849762;-0.000751953;-0.848694;3;;
352;;;;;;;10470.1;-0.871735;-0.00074707;-0.870667;3;;
361;;;;;;;10472.3;-0.893707;-0.000740967;-0.892944;3;;
370;;;;;;;10474.5;-0.886383;-0.000739136;-0.885315;3;;
379;;;;;;;10476.7;-0.86441;-0.000741577;-0.863342;3;;
388;;;;;;;10478.9;-0.842438;-0.00074707;-0.841675;3;;
397;;;;;;;10481.1;-0.820465;-0.000751038;-0.819397;3;;
406;;;;;;;10483.3;-0.798492;-0.000752869;-0.797424;3;;
415;;;;;;;10485.5;-0.77652;-0.000755615;-0.775757;3;;
424;;;;;;;10487.7;-0.754547;-0.00075592;-0.753479;3;;
433;;;;;;;10489.9;-0.732574;-0.000755615;-0.731201;3;;
442;;;;;;;10492.1;-0.710602;-0.000754089;-0.709198;3;;
451;;;;;;;10494.3;-0.688629;-0.000751648;-0.687256;3;;
460;;;;;;;10496.4;-0.666656;-0.000749512;-0.665283;3;;
469;;;;;;;10498.6;-0.644684;-0.000744934;-0.643372;3;;
478;;;;;;;10500.8;-0.622711;-0.000740662;-0.621368;3;;
487;;;;;;;10503;-0.600739;-0.000737915;-0.599396;3;;
496;;;;;;;10505.2;-0.578766;-0.000732422;-0.577545;3;;
505;;;;;;;10507.4;-0.556793;-0.00072876;-0.555603;3;;
514;;;;;;;10509.6;-0.534821;-0.000725403;-0.5336;3;;
523;;;;;;;10511.8;-0.512848;-0.000723877;-0.511688;3;;
532;;;;;;;10514;-0.490875;-0.000721741;-0.489716;3;;
541;;;;;;;10516.2;-0.468903;-0.00071991;-0.467773;3;;
550;;;;;;;10518.4;-0.44693;-0.000716858;-0.445831;3;;
559;;;;;;;10520.6;-0.424957;-0.000715637;-0.424011;3;;
568;;;;;;;10522.8;-0.402985;-0.000714111;-0.402008;3;;
577;;;;;;;10525;-0.381012;-0.000712585;-0.380096;3;;
586;;;;;;;10527.2;-0.359039;-0.000710144;-0.358124;3;;
595;;;;;;;10529.4;-0.337067;-0.000706177;-0.336243;3;;
604;;;;;;;10531.6;-0.315094;-0.000703735;-0.31427;3;;
613;;;;;;;10533.8;-0.293121;-0.000698853;-0.292328;3;;
622;;;;;;;10536;-0.271149;-0.00069458;-0.270447;3;;
631;;;;;;;10538.2;-0.249176;-0.000686646;-0.248444;3;;
640;;;;;;;10540.4;-0.227203;-0.00067627;-0.226501;3;;
649;;;;;;;10542.6;-0.205231;-0.000661926;-0.204529;3;;
658;;;;;;;10544.8;-0.183258;-0.000636902;-0.182678;3;;
667;;;;;;;10547;-0.161285;-0.000592957;-0.160706;3;;
676;;;;;;;10549.2;-0.139313;-0.000513611;-0.138824;3;;
685;;;;;;;10551.4;-0.11734;-0.000393372;-0.116882;3;;
694;;;;;;;10553.6;-0.0953674;-0.000248566;-0.0950012;3;;
703;;;;;;;10555.8;-0.0733948;-0.000115082;-0.0730896;3;;
712;;;;;;;10558;-0.0514221;-3.15796e-05;-0.0510559;3;;
721;;;;;;;10560.2;-0.0294495;-3.96545e-06;-0.0291229;3;;
730;;;;;;;10562.4;-0.00747681;7.01904e-07;-0.0072113;3;;
739;;;;;;;10564.6;0.0144958;1.297e-06;0.0147644;3;;
748;;;;;;;10566.8;0.0364685;1.41235e-06;0.0367401;3;;
757;;;;;;;10569;0.0584412;1.51581e-06;0.0583496;3;;
766;;;;;;;10571.2;0.0804138;1.63635e-06;0.0802917;3;;
775;;;;;;;10573.4;0.102386;1.80786e-06;0.102356;3;;
784;;;;;;;10575.6;0.0999451;1.31287e-06;0.099884;3;;
793;;;;;;;10577.7;0.0779724;9.07898e-07;0.0779724;3;;
802;;;;;;;10579.9;0.0559998;6.79321e-07;0.0560303;3;;
811;;;;;;;10582.1;0.0340271;5.24902e-07;0.0343201;3;;
820;;;;;;;10584.3;0.0120544;3.25317e-07;0.0123566;3;;
829;;;;;;;10586.5;-0.00991821;-4.3396e-07;-0.00960083;3;;
838;;;;;;;;;;;;;
847;;;;;;;;;;;;;
856;;;;;;;;;;;;;
865;;;;;;;;;;;;;
874;;;;;;;;;;;;;
883;;;;;;;;;;;;;
892;;;;;;;;;;;;;
901;;;;;;;;;;;;;
910;;;;;;;;;;;;;
919;;;;;;;;;;;;;
928;;;;;;;;;;;;;
937;;;;;;;;;;;;;
946;;;;;;;;;;;;;
955;;;;;;;;;;;;;
964;;;;;;;;;;;;;
973;;;;;;;;;;;;;
982;;;;;;;;;;;;;
991;;;;;;;;;;;;;
1000;;;;;;;;;;;;;
1009;;;;;;;;;;;;;
1018;;;;;;;;;;;;;
1027;;;;;;;;;;;;;
1036;;;;;;;;;;;;;
1045;;;;;;;;;;;;;
1054;;;;;;;;;;;;;
1063;;;;;;;;;;;;;
1072;;;;;;;;;;;;;
1081;;;;;;;;;;;;;
1090;;;;;;;;;;;;;
1099;;;;;;;;;;;;;
1108;;;;;;;;;;;;;
1117;;;;;;;;;;;;;
1126;;;;;;;;;;;;;
1135;;;;;;;;;;;;;
1144;;;;;;;;;;;;;
1153;;;;;;;;;;;;;
1162;;;;;;;;;;;;;
1171;;;;;;;;;;;;;
1180;;;;;;;;;;;;;
1189;;;;;;;;;;;;;
1198;;;;;;;;;;;;;
1207;;;;;;;;;;;;;
1216;;;;;;;;;;;;;
1225;;;;;;;;;;;;;
1234;;;;;;;;;;;;;
1243;;;;;;;;;;;;;
1252;;;;;;;;;;;;;
1261;;;;;;;;;;;;;
1270;;;;;;;;;;;;;
1279;;;;;;;;;;;;;
1288;;;;;;;;;;;;;
1297;;;;;;;;;;;;;
1306;;;;;;;;;;;;;
1315;;;;;;;;;;;;;
1324;;;;;;;;;;;;;
1333;;;;;;;;;;;;;
1342;;;;;;;;;;;;;
1351;;;;;;;;;;;;;
1360;;;;;;;;;;;;;
1369;;;;;;;;;;;;;
1378;;;;;;;;;;;;;
1387;;;;;;;;;;;;;
1396;;;;;;;;;;;;;
1405;;;;;;;;;;;;;
1414;;;;;;;;;;;;;
1423;;;;;;;;;;;;;
1432;;;;;;;;;;;;;
1441;;;;;;;;;;;;;
1450;;;;;;;;;;;;;
1459;;;;;;;;;;;;;
1468;;;;;;;;;;;;;
1477;;;;;;;;;;;;;
1486;;;;;;;;;;;;;
1495;;;;;;;;;;;;;
1504;;;;;;;;;;;;;
1513;;;;;;;;;;;;;
1522;;;;;;;;;;;;;
1531;;;;;;;;;;;;;
1540;;;;;;;;;;;;;
1549;;;;;;;;;;;;;
1558;;;;;;;;;;;;;
1567;;;;;;;;;;;;;
1576;;;;;;;;;;;;;
1585;;;;;;;;;;;;;
1594;;;;;;;;;;;;;
1603;;;;;;;;;;;;;
1612;;;;;;;;;;;;;
1621;;;;;;;;;;;;;
1630;;;;;;;;;;;;;
1639;;;;;;;;;;;;;
1648;;;;;;;;;;;;;
1657;;;;;;;;;;;;;
1666;;;;;;;;;;;;;
1675;;;;;;;;;;;;;
1684;;;;;;;;;;;;;
1693;;;;;;;;;;;;;
1702;;;;;;;;;;;;;
1711;;;;;;;;;;;;;
1720;;;;;;;;;;;;;
1729;;;;;;;;;;;;;
1738;;;;;;;;;;;;;
1747;;;;;;;;;;;;;
1756;;;;;;;;;;;;;
1765;;;;;;;;;;;;;
1774;;;;;;;;;;;;;
1783;;;;;;;;;;;;;
1792;;;;;;;;;;;;;
1801;;;;;;;;;;;;;
1810;;;;;;;;;;;;;
1819;;;;;;;;;;;;;
1828;;;;;;;;;;;;;
1837;;;;;;;;;;;;;
1846;;;;;;;;;;;;;
1855;;;;;;;;;;;;;
1864;;;;;;;;;;;;;
1873;;;;;;;;;;;;;
1882;;;;;;;;;;;;;
1891;;;;;;;;;;;;;
1900;;;;;;;;;;;;;
1909;;;;;;;;;;;;;
1918;;;;;;;;;;;;;
1927;;;;;;;;;;;;;
1936;;;;;;;;;;;;;
1945;;;;;;;;;;;;;
1954;;;;;;;;;;;;;
1963;;;;;;;;;;;;;
1972;;;;;;;;;;;;;
1981;;;;;;;;;;;;;
1990;;;;;;;;;;;;;
1999;;;;;;;;;;;;;
2008;;;;;;;;;;;;;
2017;;;;;;;;;;;;;
2026;;;;;;;;;;;;;
2035;;;;;;;;;;;;;
2044;;;;;;;;;;;;;
2053;;;;;;;;;;;;;
2062;;;;;;;;;;;;;
2071;;;;;;;;;;;;;
2080;;;;;;;;;;;;;
2089;;;;;;;;;;;;;
2098;;;;;;;;;;;;;
2107;;;;;;;;;;;;;
2116;;;;;;;;;;;;;
2125;;;;;;;;;;;;;
2134;;;;;;;;;;;;;
2143;;;;;;;;;;;;;
2152;;;;;;;;;;;;;
2161;;;;;;;;;;;;;
2170;;;;;;;;;;;;;
2179;;;;;;;;;;;;;
2188;;;;;;;;;;;;;
2197;;;;;;;;;;;;;
2206;;;;;;;;;;;;;
2215;;;;;;;;;;;;;
2224;;;;;;;;;;;;;
2233;;;;;;;;;;;;;
2242;;;;;;;;;;;;;
2251;;;;;;;;;;;;;
2260;;;;;;;;;;;;;
2269;;;;;;;;;;;;;
2278;;;;;;;;;;;;;
2287;;;;;;;;;;;;;
2296;;;;;;;;;;;;;
2305;;;;;;;;;;;;;
2314;;;;;;;;;;;;;
2323;;;;;;;;;;;;;
2332;;;;;;;;;;;;;
2341;;;;;;;;;;;;;
2350;;;;;;;;;;;;;
2359;;;;;;;;;;;;;
2368;;;;;;;;;;;;;
2377;;;;;;;;;;;;;
2386;;;;;;;;;;;;;
2395;;;;;;;;;;;;;
2404;;;;;;;;;;;;;
2413;;;;;;;;;;;;;
2422;;;;;;;;;;;;;
2431;;;;;;;;;;;;;
2440;;;;;;;;;;;;;
2449;;;;;;;;;;;;;
2458;;;;;;;;;;;;;
2467;;;;;;;;;;;;;
2476;;;;;;;;;;;;;
2485;;;;;;;;;;;;;
2494;;;;;;;;;;;;;
2503;;;;;;;;;;;;;
2512;;;;;;;;;;;;;
2521;;;;;;;;;;;;;
2530;;;;;;;;;;;;;
2536;;;;;;;;;;;;;