Folder: electrochemical_ORR_procesing_autolab/carbon_superP

Note: README.md
# Electrochemical ORR reaction fit tools in Python

# Overview

ORR reaction is one of the most important of all electrochemical reactions. Unfortunately, experimental research of this reaction is really complicated due to lack of standardization and processing data time involved. 

This project aims to provide quick-tools developed in Python for ORR data treatment. These tools are based on data acquisition recommendations described in the [Kocha et. al. 2017](https://doi.org/10.1007/s12678-017-0378-6) . 
Main tools consist in obtain following parameters: 

- Stacked plots associated to nitrogen analysis.
- Stacked plots associated to oxygen analysis.
- Stacked plots associated to ORR analysis.
- Koutecky-levich plots (linealiced).
- Bode and Nyquist plots for nitrogen (0 rpm, 1000 rpm and 2000 rpm) and oxygen (1600 rpm) experiments. 
- Number of electrons involved in ORR.
- Limiting current (onset potential) for ORR.
- Halfway potential for ORR. 


# ORR reaction in electrochemistry

Oxygen reduction reaction (ORR) is also the most important reaction in life processes. In aqueous media occurs mainly by two pathways: the direct 4-electron reduction pathway from O2 to H2O, and the 2-electron reduction pathway from O2 to hydrogen peroxide (H2O2).

# ORR reaction in the laboratory

Most common technique for ORR studies is cyclic voltammetry using a rotating disk electrode (RDE), and rotating ring-disk electrode (RRDE). 
Here I used experimental protocol described in readme_experimental_protocol.md and provide an example of kind of data and results obtained by this project in the folder carbon_superP.

# Python modules required for running script

Prior to run the ORR script, install following python packages 

Matplotlib

    python -m pip install -U pip
    python -m pip install -U matplotlib

Numpy

    pip install numpy
    
Pandas

    pip install pandas
    
Glob

    pip install glob3
    
Shutil  

    pip install pytest-shutil   
    
Astropy 

    pip install astropy
    
# Bibliography



[Song C., Zhang J. (2008) Electrocatalytic Oxygen Reduction Reaction. In: Zhang J. (eds) PEM Fuel Cell Electrocatalysts and Catalyst Layers. Springer, London.](https://link.springer.com/chapter/10.1007/978-1-84800-936-3_2)

[Kocha, S.S., Shinozaki, K., Zack, J.W. et al. Best Practices and Testing Protocols for Benchmarking ORR Activities of Fuel Cell Electrocatalysts Using Rotating Disk Electrode. Electrocatalysis 8, 366â€“374 (2017). ](https://link.springer.com/article/10.1007/s12678-017-0378-6


# Additional coments

The Electrochemical ORR reaction fit tools in the Python version are still in it's beta state. This means that it can have some bugs and issues. However, testing and contributing is very welcome.

# Contributors

[gcarrascohuertas](https://github.com/gcarrascohuertas)

File: N2_0rpm.txt
Index;Column 2 (V);Column 3 (V);Column 4 (V);Column 5 (V);Column 6 (V/s);Column 7 (V);Time (s);Potential applied (V);WE(1).Current (A);WE(1).Potential (V);Scan;Column 13 (RPM);ω (rad/s);Frequency (Hz);Z' (Ω);-Z'' (Ω);Z (Ω);-Phase (°);Time (s);Y' (Mho);-Y'' (Mho)
1;0.1;0.11;-0.9;-0.01;0.01;-0.00244;4141.32;-0.014801;1.93176e-07;-0.014502;3;2000;209.44;100000;39.1549;5.51348;39.5411;8.01524;3525.78;0.0250431;0.00352636
11;;;;;;;4143.76;-0.0392151;7.04346e-08;-0.0388672;3;;;10000;38.082;2.30159;38.1515;3.45862;3545.34;0.0261635;0.00158127
21;;;;;;;4146.2;-0.0636292;-4.35791e-08;-0.0631409;3;;;1000;41.0322;8.19829;41.8432;11.299;3563.15;0.0234356;0.00468246
31;;;;;;;4148.64;-0.0880432;-1.89117e-07;-0.0874939;3;;;100;53.8664;51.0802;74.2346;43.4792;3581.29;0.00977475;0.00926915
41;;;;;;;4151.08;-0.112457;-3.35999e-07;-0.112061;3;;;10;116.571;346.789;365.857;71.4203;3610.88;0.000870898;0.00259085
51;;;;;;;4153.52;-0.136871;-5.56946e-07;-0.136383;3;;;1;472.262;2758.12;2798.26;80.2837;3644.43;6.03125e-05;0.000352239
61;;;;;;;4155.96;-0.161285;-7.6355e-07;-0.160736;3;;;0.1;3964.55;22095.3;22448.2;79.8277;3706.66;7.86741e-06;4.38468e-05
71;;;;;;;4158.41;-0.185699;-9.52148e-07;-0.185181;3;;;;;;;;;;
81;;;;;;;4160.85;-0.210114;-1.06415e-06;-0.209442;3;;;;;;;;;;
91;;;;;;;4163.29;-0.234528;-1.16699e-06;-0.233826;3;;;;;;;;;;
101;;;;;;;4165.73;-0.258942;-1.26526e-06;-0.258148;3;;;;;;;;;;
111;;;;;;;4168.17;-0.283356;-1.3736e-06;-0.282471;3;;;;;;;;;;
121;;;;;;;4170.61;-0.30777;-1.49963e-06;-0.306885;3;;;;;;;;;;
131;;;;;;;4173.05;-0.332184;-1.59088e-06;-0.331238;3;;;;;;;;;;
141;;;;;;;4175.5;-0.356598;-1.64398e-06;-0.355591;3;;;;;;;;;;
151;;;;;;;4177.94;-0.381012;-1.6803e-06;-0.379974;3;;;;;;;;;;
161;;;;;;;4180.38;-0.405426;-1.73126e-06;-0.404327;3;;;;;;;;;;
171;;;;;;;4182.82;-0.42984;-1.78741e-06;-0.428711;3;;;;;;;;;;
181;;;;;;;4185.26;-0.454254;-1.84418e-06;-0.453033;3;;;;;;;;;;
191;;;;;;;4187.7;-0.478668;-1.9281e-06;-0.477386;3;;;;;;;;;;
201;;;;;;;4190.14;-0.503082;-2.01508e-06;-0.50177;3;;;;;;;;;;
211;;;;;;;4192.58;-0.527496;-2.13226e-06;-0.526184;3;;;;;;;;;;
221;;;;;;;4195.03;-0.55191;-2.27173e-06;-0.550446;3;;;;;;;;;;
231;;;;;;;4197.47;-0.576324;-2.44507e-06;-0.574768;3;;;;;;;;;;
241;;;;;;;4199.91;-0.600739;-2.66266e-06;-0.599121;3;;;;;;;;;;
251;;;;;;;4202.35;-0.625153;-2.89032e-06;-0.623413;3;;;;;;;;;;
261;;;;;;;4204.79;-0.649567;-3.16681e-06;-0.648224;3;;;;;;;;;;
271;;;;;;;4207.23;-0.673981;-3.38806e-06;-0.672607;3;;;;;;;;;;
281;;;;;;;4209.67;-0.698395;-3.66821e-06;-0.697052;3;;;;;;;;;;
291;;;;;;;4212.12;-0.722809;-3.94623e-06;-0.721405;3;;;;;;;;;;
301;;;;;;;4214.56;-0.747223;-4.26941e-06;-0.745911;3;;;;;;;;;;
311;;;;;;;4217;-0.771637;-4.64478e-06;-0.770569;3;;;;;;;;;;
321;;;;;;;4219.44;-0.796051;-5.07507e-06;-0.794983;3;;;;;;;;;;
331;;;;;;;4221.88;-0.820465;-5.6366e-06;-0.820007;3;;;;;;;;;;
341;;;;;;;4224.32;-0.844879;-6.29272e-06;-0.844116;3;;;;;;;;;;
351;;;;;;;4226.76;-0.869293;-7.19299e-06;-0.86853;3;;;;;;;;;;
361;;;;;;;4229.21;-0.893707;-8.35266e-06;-0.892944;3;;;;;;;;;;
371;;;;;;;4231.65;-0.883942;-3.24005e-06;-0.883179;3;;;;;;;;;;
381;;;;;;;4234.09;-0.859528;-1.23627e-06;-0.858765;3;;;;;;;;;;
391;;;;;;;4236.53;-0.835114;-3.12195e-07;-0.834351;3;;;;;;;;;;
401;;;;;;;4238.97;-0.810699;2.09351e-07;-0.809937;3;;;;;;;;;;
411;;;;;;;4241.41;-0.786285;6.06995e-07;-0.785217;3;;;;;;;;;;
421;;;;;;;4243.85;-0.761871;8.62427e-07;-0.761108;3;;;;;;;;;;
431;;;;;;;4246.3;-0.737457;1.06689e-06;-0.736328;3;;;;;;;;;;
441;;;;;;;4248.74;-0.713043;1.20331e-06;-0.711914;3;;;;;;;;;;
451;;;;;;;4251.18;-0.688629;1.28967e-06;-0.6875;3;;;;;;;;;;
461;;;;;;;4253.62;-0.664215;1.34399e-06;-0.663208;3;;;;;;;;;;
471;;;;;;;4256.06;-0.639801;1.33575e-06;-0.638672;3;;;;;;;;;;
481;;;;;;;4258.5;-0.615387;1.31012e-06;-0.614288;3;;;;;;;;;;
491;;;;;;;4260.94;-0.590973;1.22528e-06;-0.589935;3;;;;;;;;;;
501;;;;;;;4263.39;-0.566559;1.15753e-06;-0.565552;3;;;;;;;;;;
511;;;;;;;4265.83;-0.542145;1.05194e-06;-0.541138;3;;;;;;;;;;
521;;;;;;;4268.27;-0.517731;9.85107e-07;-0.516815;3;;;;;;;;;;
531;;;;;;;4270.71;-0.493317;9.31702e-07;-0.492432;3;;;;;;;;;;
541;;;;;;;4273.15;-0.468903;9.13696e-07;-0.468079;3;;;;;;;;;;
551;;;;;;;4275.59;-0.444489;9.06677e-07;-0.443695;3;;;;;;;;;;
561;;;;;;;4278.03;-0.420074;8.95081e-07;-0.41922;3;;;;;;;;;;
571;;;;;;;4280.48;-0.39566;9.06677e-07;-0.394958;3;;;;;;;;;;
581;;;;;;;4282.92;-0.371246;9.14917e-07;-0.370483;3;;;;;;;;;;
591;;;;;;;4285.36;-0.346832;9.27124e-07;-0.346069;3;;;;;;;;;;
601;;;;;;;4287.8;-0.322418;9.46655e-07;-0.321838;3;;;;;;;;;;
611;;;;;;;4290.24;-0.298004;9.83887e-07;-0.297455;3;;;;;;;;;;
621;;;;;;;4292.68;-0.27359;1.026e-06;-0.273132;3;;;;;;;;;;
631;;;;;;;4295.12;-0.249176;1.10657e-06;-0.248657;3;;;;;;;;;;
641;;;;;;;4297.57;-0.224762;1.22803e-06;-0.224335;3;;;;;;;;;;
651;;;;;;;4300.01;-0.200348;1.38336e-06;-0.199951;3;;;;;;;;;;
661;;;;;;;4302.45;-0.175934;1.57837e-06;-0.175629;3;;;;;;;;;;
671;;;;;;;4304.89;-0.15152;1.70319e-06;-0.151215;3;;;;;;;;;;
681;;;;;;;4307.33;-0.127106;1.75873e-06;-0.126862;3;;;;;;;;;;
691;;;;;;;4309.77;-0.102692;1.73401e-06;-0.1026;3;;;;;;;;;;
701;;;;;;;4312.21;-0.0782776;1.69189e-06;-0.078186;3;;;;;;;;;;
711;;;;;;;4314.66;-0.0538635;1.6687e-06;-0.053772;3;;;;;;;;;;
721;;;;;;;4317.1;-0.0294495;1.65161e-06;-0.0291412;3;;;;;;;;;;
731;;;;;;;4319.54;-0.0050354;1.66962e-06;-0.00474243;3;;;;;;;;;;
741;;;;;;;4321.98;0.0193787;1.69495e-06;0.0196411;3;;;;;;;;;;
751;;;;;;;4324.42;0.0437927;1.74103e-06;0.0440338;3;;;;;;;;;;
761;;;;;;;4326.86;0.0682068;1.80939e-06;0.0681458;3;;;;;;;;;;
771;;;;;;;4329.3;0.0926208;1.93359e-06;0.0925903;3;;;;;;;;;;
781;;;;;;;4331.75;0.107269;1.71478e-06;0.107239;3;;;;;;;;;;
791;;;;;;;4334.19;0.0828552;1.05164e-06;0.0828247;3;;;;;;;;;;
801;;;;;;;4336.63;0.0584412;7.38525e-07;0.0584412;3;;;;;;;;;;
811;;;;;;;4339.07;0.0340271;5.25818e-07;0.034317;3;;;;;;;;;;
821;;;;;;;4341.51;0.00961304;3.68042e-07;0.00987549;3;;;;;;;;;;
831;;;;;;;;;;;;;;;;;;;;;
841;;;;;;;;;;;;;;;;;;;;;
851;;;;;;;;;;;;;;;;;;;;;
861;;;;;;;;;;;;;;;;;;;;;
871;;;;;;;;;;;;;;;;;;;;;
881;;;;;;;;;;;;;;;;;;;;;
891;;;;;;;;;;;;;;;;;;;;;
901;;;;;;;;;;;;;;;;;;;;;
911;;;;;;;;;;;;;;;;;;;;;
921;;;;;;;;;;;;;;;;;;;;;
931;;;;;;;;;;;;;;;;;;;;;
941;;;;;;;;;;;;;;;;;;;;;
951;;;;;;;;;;;;;;;;;;;;;
961;;;;;;;;;;;;;;;;;;;;;
971;;;;;;;;;;;;;;;;;;;;;
981;;;;;;;;;;;;;;;;;;;;;
991;;;;;;;;;;;;;;;;;;;;;
1001;;;;;;;;;;;;;;;;;;;;;
1011;;;;;;;;;;;;;;;;;;;;;
1021;;;;;;;;;;;;;;;;;;;;;
1031;;;;;;;;;;;;;;;;;;;;;
1041;;;;;;;;;;;;;;;;;;;;;
1051;;;;;;;;;;;;;;;;;;;;;
1061;;;;;;;;;;;;;;;;;;;;;
1071;;;;;;;;;;;;;;;;;;;;;
1081;;;;;;;;;;;;;;;;;;;;;
1091;;;;;;;;;;;;;;;;;;;;;
1101;;;;;;;;;;;;;;;;;;;;;
1111;;;;;;;;;;;;;;;;;;;;;
1121;;;;;;;;;;;;;;;;;;;;;
1131;;;;;;;;;;;;;;;;;;;;;
1141;;;;;;;;;;;;;;;;;;;;;
1151;;;;;;;;;;;;;;;;;;;;;
1161;;;;;;;;;;;;;;;;;;;;;
1171;;;;;;;;;;;;;;;;;;;;;
1181;;;;;;;;;;;;;;;;;;;;;
1191;;;;;;;;;;;;;;;;;;;;;
1201;;;;;;;;;;;;;;;;;;;;;
1211;;;;;;;;;;;;;;;;;;;;;
1221;;;;;;;;;;;;;;;;;;;;;
1231;;;;;;;;;;;;;;;;;;;;;
1241;;;;;;;;;;;;;;;;;;;;;
1251;;;;;;;;;;;;;;;;;;;;;
1261;;;;;;;;;;;;;;;;;;;;;
1271;;;;;;;;;;;;;;;;;;;;;
1281;;;;;;;;;;;;;;;;;;;;;
1291;;;;;;;;;;;;;;;;;;;;;
1301;;;;;;;;;;;;;;;;;;;;;
1311;;;;;;;;;;;;;;;;;;;;;
1321;;;;;;;;;;;;;;;;;;;;;
1331;;;;;;;;;;;;;;;;;;;;;
1341;;;;;;;;;;;;;;;;;;;;;
1351;;;;;;;;;;;;;;;;;;;;;
1361;;;;;;;;;;;;;;;;;;;;;
1371;;;;;;;;;;;;;;;;;;;;;
1381;;;;;;;;;;;;;;;;;;;;;
1391;;;;;;;;;;;;;;;;;;;;;
1401;;;;;;;;;;;;;;;;;;;;;
1411;;;;;;;;;;;;;;;;;;;;;
1421;;;;;;;;;;;;;;;;;;;;;
1431;;;;;;;;;;;;;;;;;;;;;
1441;;;;;;;;;;;;;;;;;;;;;
1451;;;;;;;;;;;;;;;;;;;;;
1461;;;;;;;;;;;;;;;;;;;;;
1471;;;;;;;;;;;;;;;;;;;;;
1481;;;;;;;;;;;;;;;;;;;;;
1491;;;;;;;;;;;;;;;;;;;;;
1501;;;;;;;;;;;;;;;;;;;;;
1511;;;;;;;;;;;;;;;;;;;;;
1521;;;;;;;;;;;;;;;;;;;;;
1531;;;;;;;;;;;;;;;;;;;;;
1541;;;;;;;;;;;;;;;;;;;;;
1551;;;;;;;;;;;;;;;;;;;;;
1561;;;;;;;;;;;;;;;;;;;;;
1571;;;;;;;;;;;;;;;;;;;;;
1581;;;;;;;;;;;;;;;;;;;;;
1591;;;;;;;;;;;;;;;;;;;;;
1601;;;;;;;;;;;;;;;;;;;;;
1611;;;;;;;;;;;;;;;;;;;;;
1621;;;;;;;;;;;;;;;;;;;;;
1631;;;;;;;;;;;;;;;;;;;;;
1641;;;;;;;;;;;;;;;;;;;;;
1651;;;;;;;;;;;;;;;;;;;;;
1661;;;;;;;;;;;;;;;;;;;;;
1671;;;;;;;;;;;;;;;;;;;;;
1681;;;;;;;;;;;;;;;;;;;;;
1691;;;;;;;;;;;;;;;;;;;;;
1701;;;;;;;;;;;;;;;;;;;;;
1711;;;;;;;;;;;;;;;;;;;;;
1721;;;;;;;;;;;;;;;;;;;;;
1731;;;;;;;;;;;;;;;;;;;;;
1741;;;;;;;;;;;;;;;;;;;;;
1751;;;;;;;;;;;;;;;;;;;;;
1761;;;;;;;;;;;;;;;;;;;;;
1771;;;;;;;;;;;;;;;;;;;;;
1781;;;;;;;;;;;;;;;;;;;;;
1791;;;;;;;;;;;;;;;;;;;;;
1801;;;;;;;;;;;;;;;;;;;;;
1811;;;;;;;;;;;;;;;;;;;;;
1821;;;;;;;;;;;;;;;;;;;;;
1831;;;;;;;;;;;;;;;;;;;;;
1841;;;;;;;;;;;;;;;;;;;;;
1851;;;;;;;;;;;;;;;;;;;;;
1861;;;;;;;;;;;;;;;;;;;;;
1871;;;;;;;;;;;;;;;;;;;;;
1881;;;;;;;;;;;;;;;;;;;;;
1891;;;;;;;;;;;;;;;;;;;;;
1901;;;;;;;;;;;;;;;;;;;;;
1911;;;;;;;;;;;;;;;;;;;;;
1921;;;;;;;;;;;;;;;;;;;;;
1931;;;;;;;;;;;;;;;;;;;;;
1941;;;;;;;;;;;;;;;;;;;;;
1951;;;;;;;;;;;;;;;;;;;;;
1961;;;;;;;;;;;;;;;;;;;;;
1971;;;;;;;;;;;;;;;;;;;;;
1981;;;;;;;;;;;;;;;;;;;;;
1991;;;;;;;;;;;;;;;;;;;;;
2001;;;;;;;;;;;;;;;;;;;;;
2011;;;;;;;;;;;;;;;;;;;;;
2021;;;;;;;;;;;;;;;;;;;;;
2031;;;;;;;;;;;;;;;;;;;;;
2041;;;;;;;;;;;;;;;;;;;;;
2051;;;;;;;;;;;;;;;;;;;;;
2061;;;;;;;;;;;;;;;;;;;;;
2071;;;;;;;;;;;;;;;;;;;;;
2081;;;;;;;;;;;;;;;;;;;;;
2091;;;;;;;;;;;;;;;;;;;;;
2101;;;;;;;;;;;;;;;;;;;;;
2111;;;;;;;;;;;;;;;;;;;;;
2121;;;;;;;;;;;;;;;;;;;;;
2131;;;;;;;;;;;;;;;;;;;;;
2141;;;;;;;;;;;;;;;;;;;;;
2151;;;;;;;;;;;;;;;;;;;;;
2161;;;;;;;;;;;;;;;;;;;;;
2171;;;;;;;;;;;;;;;;;;;;;
2181;;;;;;;;;;;;;;;;;;;;;
2191;;;;;;;;;;;;;;;;;;;;;
2201;;;;;;;;;;;;;;;;;;;;;
2211;;;;;;;;;;;;;;;;;;;;;
2221;;;;;;;;;;;;;;;;;;;;;
2231;;;;;;;;;;;;;;;;;;;;;
2241;;;;;;;;;;;;;;;;;;;;;
2251;;;;;;;;;;;;;;;;;;;;;
2261;;;;;;;;;;;;;;;;;;;;;
2271;;;;;;;;;;;;;;;;;;;;;
2281;;;;;;;;;;;;;;;;;;;;;
2291;;;;;;;;;;;;;;;;;;;;;
2301;;;;;;;;;;;;;;;;;;;;;
2311;;;;;;;;;;;;;;;;;;;;;
2321;;;;;;;;;;;;;;;;;;;;;
2331;;;;;;;;;;;;;;;;;;;;;
2341;;;;;;;;;;;;;;;;;;;;;
2351;;;;;;;;;;;;;;;;;;;;;
2361;;;;;;;;;;;;;;;;;;;;;
2371;;;;;;;;;;;;;;;;;;;;;
2381;;;;;;;;;;;;;;;;;;;;;
2391;;;;;;;;;;;;;;;;;;;;;
2401;;;;;;;;;;;;;;;;;;;;;
2411;;;;;;;;;;;;;;;;;;;;;
2421;;;;;;;;;;;;;;;;;;;;;
2431;;;;;;;;;;;;;;;;;;;;;
2441;;;;;;;;;;;;;;;;;;;;;
2451;;;;;;;;;;;;;;;;;;;;;
2461;;;;;;;;;;;;;;;;;;;;;
2471;;;;;;;;;;;;;;;;;;;;;
2481;;;;;;;;;;;;;;;;;;;;;
2491;;;;;;;;;;;;;;;;;;;;;
2501;;;;;;;;;;;;;;;;;;;;;
2511;;;;;;;;;;;;;;;;;;;;;
2521;;;;;;;;;;;;;;;;;;;;;
2531;;;;;;;;;;;;;;;;;;;;;
2536;;;;;;;;;;;;;;;;;;;;;

File: N2_1000rpm.txt
Index;Column 2 (V);Column 3 (V);Column 4 (V);Column 5 (V);Column 6 (V/s);Column 7 (V);Time (s);Potential applied (V);WE(1).Current (A);WE(1).Potential (V);Scan;Column 13 (RPM);ω (rad/s);Frequency (Hz);Z' (Ω);-Z'' (Ω);Z (Ω);-Phase (°);Time (s);Y' (Mho);-Y'' (Mho)
1;0;0.01;-1;-0.01;0.01;-0.00244;2806.43;-0.0146484;7.04651e-07;-0.0144257;3;1000;104.72;100000;34.7026;2.71072;34.8083;4.46646;2187.74;0.0286415;0.00223727
14;;;;;;;2809.61;-0.0463867;3.53699e-07;-0.0460449;3;;;5011.9;35.2681;3.51864;35.4432;5.69745;2215.75;0.0280748;0.00280098
27;;;;;;;2812.78;-0.078125;1.44043e-07;-0.0779419;3;;;251.19;43.8202;27.7525;51.8692;32.3472;2242.36;0.0162875;0.0103154
40;;;;;;;2815.96;-0.109863;-1.06812e-08;-0.109589;3;;;12.589;117.122;317.876;338.767;69.7736;2279.23;0.00102056;0.00276985
53;;;;;;;2819.13;-0.141602;-1.56158e-07;-0.141052;3;;;0.63096;876.715;4421.35;4507.43;78.7842;2325.2;4.31519e-05;0.000217619
66;;;;;;;2822.3;-0.17334;-2.77893e-07;-0.172546;3;;;;;;;;;;
79;;;;;;;2825.48;-0.205078;-3.74451e-07;-0.204498;3;;;;;;;;;;
92;;;;;;;2828.65;-0.236816;-4.94995e-07;-0.236267;3;;;;;;;;;;
105;;;;;;;2831.83;-0.268555;-5.95398e-07;-0.267914;3;;;;;;;;;;
118;;;;;;;2835;-0.300293;-7.13196e-07;-0.29953;3;;;;;;;;;;
131;;;;;;;2838.17;-0.332031;-8.42896e-07;-0.331207;3;;;;;;;;;;
144;;;;;;;2841.35;-0.36377;-9.95789e-07;-0.362885;3;;;;;;;;;;
157;;;;;;;2844.52;-0.395508;-1.19324e-06;-0.394653;3;;;;;;;;;;
170;;;;;;;2847.69;-0.427246;-1.42914e-06;-0.426239;3;;;;;;;;;;
183;;;;;;;2850.87;-0.458984;-1.67572e-06;-0.457947;3;;;;;;;;;;
196;;;;;;;2854.04;-0.490723;-1.88049e-06;-0.489563;3;;;;;;;;;;
209;;;;;;;2857.22;-0.522461;-2.03552e-06;-0.52124;3;;;;;;;;;;
222;;;;;;;2860.39;-0.554199;-2.13867e-06;-0.552887;3;;;;;;;;;;
235;;;;;;;2863.56;-0.5859375;-2.21436e-06;-0.584625;3;;;;;;;;;;
248;;;;;;;2866.74;-0.617676;-2.29675e-06;-0.61618;3;;;;;;;;;;
261;;;;;;;2869.91;-0.649414;-2.35962e-06;-0.647888;3;;;;;;;;;;
274;;;;;;;2873.09;-0.681152;-2.42737e-06;-0.679657;3;;;;;;;;;;
287;;;;;;;2876.26;-0.712891;-2.49268e-06;-0.711365;3;;;;;;;;;;
300;;;;;;;2879.43;-0.744629;-2.62695e-06;-0.743042;3;;;;;;;;;;
313;;;;;;;2882.61;-0.776367;-2.71118e-06;-0.775757;3;;;;;;;;;;
326;;;;;;;2885.78;-0.808105;-2.85492e-06;-0.807495;3;;;;;;;;;;
339;;;;;;;2888.95;-0.839844;-3.02216e-06;-0.839844;3;;;;;;;;;;
352;;;;;;;2892.13;-0.871582;-3.20099e-06;-0.870667;3;;;;;;;;;;
365;;;;;;;2895.3;-0.90332;-3.38165e-06;-0.9021;3;;;;;;;;;;
378;;;;;;;2898.48;-0.935059;-3.58398e-06;-0.934143;3;;;;;;;;;;
391;;;;;;;2901.65;-0.966797;-3.7973e-06;-0.965881;3;;;;;;;;;;
404;;;;;;;2904.82;-0.998535;-4.06036e-06;-0.997925;3;;;;;;;;;;
417;;;;;;;2908;-0.97168;-1.77795e-06;-0.970459;3;;;;;;;;;;
430;;;;;;;2911.17;-0.939941;-1.09039e-06;-0.939331;3;;;;;;;;;;
443;;;;;;;2914.34;-0.908203;-7.0343e-07;-0.907288;3;;;;;;;;;;
456;;;;;;;2917.52;-0.876465;-4.30603e-07;-0.87616;3;;;;;;;;;;
469;;;;;;;2920.69;-0.844727;-2.28882e-07;-0.843811;3;;;;;;;;;;
482;;;;;;;2923.87;-0.812988;-7.96204e-08;-0.812073;3;;;;;;;;;;
495;;;;;;;2927.04;-0.78125;4.52271e-08;-0.78064;3;;;;;;;;;;
508;;;;;;;2930.21;-0.749512;1.39008e-07;-0.748474;3;;;;;;;;;;
521;;;;;;;2933.39;-0.717773;2.17926e-07;-0.716736;3;;;;;;;;;;
534;;;;;;;2936.56;-0.686035;2.89215e-07;-0.68515;3;;;;;;;;;;
547;;;;;;;2939.74;-0.654297;3.46985e-07;-0.653229;3;;;;;;;;;;
560;;;;;;;2942.91;-0.622559;4.04358e-07;-0.621521;3;;;;;;;;;;
573;;;;;;;2946.08;-0.59082;4.66919e-07;-0.589813;3;;;;;;;;;;
586;;;;;;;2949.26;-0.559082;5.05676e-07;-0.558105;3;;;;;;;;;;
599;;;;;;;2952.43;-0.527344;5.53894e-07;-0.526276;3;;;;;;;;;;
612;;;;;;;2955.6;-0.495605;6.16455e-07;-0.494781;3;;;;;;;;;;
625;;;;;;;2958.78;-0.463867;6.63757e-07;-0.463043;3;;;;;;;;;;
638;;;;;;;2961.95;-0.432129;7.30591e-07;-0.431366;3;;;;;;;;;;
651;;;;;;;2965.13;-0.400391;8.02917e-07;-0.399719;3;;;;;;;;;;
664;;;;;;;2968.3;-0.368652;8.77686e-07;-0.368042;3;;;;;;;;;;
677;;;;;;;2971.47;-0.336914;9.49097e-07;-0.336395;3;;;;;;;;;;
690;;;;;;;2974.65;-0.305176;1.01318e-06;-0.304657;3;;;;;;;;;;
703;;;;;;;2977.82;-0.2734375;1.06537e-06;-0.272919;3;;;;;;;;;;
716;;;;;;;2981;-0.241699;1.11328e-06;-0.241302;3;;;;;;;;;;
729;;;;;;;2984.17;-0.209961;1.15753e-06;-0.209564;3;;;;;;;;;;
742;;;;;;;2987.34;-0.178223;1.21277e-06;-0.177917;3;;;;;;;;;;
755;;;;;;;2990.52;-0.146484;1.25488e-06;-0.14624;3;;;;;;;;;;
768;;;;;;;2993.69;-0.114746;1.30341e-06;-0.114563;3;;;;;;;;;;
781;;;;;;;2996.86;-0.0830078;1.35132e-06;-0.0829773;3;;;;;;;;;;
794;;;;;;;3000.04;-0.0512695;1.39435e-06;-0.0512695;3;;;;;;;;;;
807;;;;;;;3003.21;-0.01953125;1.44348e-06;-0.0193726;3;;;;;;;;;;
820;;;;;;;3006.39;0.012207;1.50604e-06;0.0123749;3;;;;;;;;;;
833;;;;;;;;;;;;;;;;;;;;;
846;;;;;;;;;;;;;;;;;;;;;
859;;;;;;;;;;;;;;;;;;;;;
872;;;;;;;;;;;;;;;;;;;;;
885;;;;;;;;;;;;;;;;;;;;;
898;;;;;;;;;;;;;;;;;;;;;
911;;;;;;;;;;;;;;;;;;;;;
924;;;;;;;;;;;;;;;;;;;;;
937;;;;;;;;;;;;;;;;;;;;;
950;;;;;;;;;;;;;;;;;;;;;
963;;;;;;;;;;;;;;;;;;;;;
976;;;;;;;;;;;;;;;;;;;;;
989;;;;;;;;;;;;;;;;;;;;;
1002;;;;;;;;;;;;;;;;;;;;;
1015;;;;;;;;;;;;;;;;;;;;;
1028;;;;;;;;;;;;;;;;;;;;;
1041;;;;;;;;;;;;;;;;;;;;;
1054;;;;;;;;;;;;;;;;;;;;;
1067;;;;;;;;;;;;;;;;;;;;;
1080;;;;;;;;;;;;;;;;;;;;;
1093;;;;;;;;;;;;;;;;;;;;;
1106;;;;;;;;;;;;;;;;;;;;;
1119;;;;;;;;;;;;;;;;;;;;;
1132;;;;;;;;;;;;;;;;;;;;;
1145;;;;;;;;;;;;;;;;;;;;;
1158;;;;;;;;;;;;;;;;;;;;;
1171;;;;;;;;;;;;;;;;;;;;;
1184;;;;;;;;;;;;;;;;;;;;;
1197;;;;;;;;;;;;;;;;;;;;;
1210;;;;;;;;;;;;;;;;;;;;;
1223;;;;;;;;;;;;;;;;;;;;;
1236;;;;;;;;;;;;;;;;;;;;;
1249;;;;;;;;;;;;;;;;;;;;;
1262;;;;;;;;;;;;;;;;;;;;;
1275;;;;;;;;;;;;;;;;;;;;;
1288;;;;;;;;;;;;;;;;;;;;;
1301;;;;;;;;;;;;;;;;;;;;;
1314;;;;;;;;;;;;;;;;;;;;;
1327;;;;;;;;;;;;;;;;;;;;;
1340;;;;;;;;;;;;;;;;;;;;;
1353;;;;;;;;;;;;;;;;;;;;;
1366;;;;;;;;;;;;;;;;;;;;;
1379;;;;;;;;;;;;;;;;;;;;;
1392;;;;;;;;;;;;;;;;;;;;;
1405;;;;;;;;;;;;;;;;;;;;;
1418;;;;;;;;;;;;;;;;;;;;;
1431;;;;;;;;;;;;;;;;;;;;;
1444;;;;;;;;;;;;;;;;;;;;;
1457;;;;;;;;;;;;;;;;;;;;;
1470;;;;;;;;;;;;;;;;;;;;;
1483;;;;;;;;;;;;;;;;;;;;;
1496;;;;;;;;;;;;;;;;;;;;;
1509;;;;;;;;;;;;;;;;;;;;;
1522;;;;;;;;;;;;;;;;;;;;;
1535;;;;;;;;;;;;;;;;;;;;;
1548;;;;;;;;;;;;;;;;;;;;;
1561;;;;;;;;;;;;;;;;;;;;;
1574;;;;;;;;;;;;;;;;;;;;;
1587;;;;;;;;;;;;;;;;;;;;;
1600;;;;;;;;;;;;;;;;;;;;;
1613;;;;;;;;;;;;;;;;;;;;;
1626;;;;;;;;;;;;;;;;;;;;;
1639;;;;;;;;;;;;;;;;;;;;;
1652;;;;;;;;;;;;;;;;;;;;;
1665;;;;;;;;;;;;;;;;;;;;;
1678;;;;;;;;;;;;;;;;;;;;;
1691;;;;;;;;;;;;;;;;;;;;;
1704;;;;;;;;;;;;;;;;;;;;;
1717;;;;;;;;;;;;;;;;;;;;;
1730;;;;;;;;;;;;;;;;;;;;;
1743;;;;;;;;;;;;;;;;;;;;;
1756;;;;;;;;;;;;;;;;;;;;;
1769;;;;;;;;;;;;;;;;;;;;;
1782;;;;;;;;;;;;;;;;;;;;;
1795;;;;;;;;;;;;;;;;;;;;;
1808;;;;;;;;;;;;;;;;;;;;;
1821;;;;;;;;;;;;;;;;;;;;;
1834;;;;;;;;;;;;;;;;;;;;;
1847;;;;;;;;;;;;;;;;;;;;;
1860;;;;;;;;;;;;;;;;;;;;;
1873;;;;;;;;;;;;;;;;;;;;;
1886;;;;;;;;;;;;;;;;;;;;;
1899;;;;;;;;;;;;;;;;;;;;;
1912;;;;;;;;;;;;;;;;;;;;;
1925;;;;;;;;;;;;;;;;;;;;;
1938;;;;;;;;;;;;;;;;;;;;;
1951;;;;;;;;;;;;;;;;;;;;;
1964;;;;;;;;;;;;;;;;;;;;;
1977;;;;;;;;;;;;;;;;;;;;;
1990;;;;;;;;;;;;;;;;;;;;;
2003;;;;;;;;;;;;;;;;;;;;;
2016;;;;;;;;;;;;;;;;;;;;;
2029;;;;;;;;;;;;;;;;;;;;;
2042;;;;;;;;;;;;;;;;;;;;;
2055;;;;;;;;;;;;;;;;;;;;;
2068;;;;;;;;;;;;;;;;;;;;;
2081;;;;;;;;;;;;;;;;;;;;;
2094;;;;;;;;;;;;;;;;;;;;;
2107;;;;;;;;;;;;;;;;;;;;;
2120;;;;;;;;;;;;;;;;;;;;;
2133;;;;;;;;;;;;;;;;;;;;;
2146;;;;;;;;;;;;;;;;;;;;;
2159;;;;;;;;;;;;;;;;;;;;;
2172;;;;;;;;;;;;;;;;;;;;;
2185;;;;;;;;;;;;;;;;;;;;;
2198;;;;;;;;;;;;;;;;;;;;;
2211;;;;;;;;;;;;;;;;;;;;;
2224;;;;;;;;;;;;;;;;;;;;;
2237;;;;;;;;;;;;;;;;;;;;;
2250;;;;;;;;;;;;;;;;;;;;;
2263;;;;;;;;;;;;;;;;;;;;;
2276;;;;;;;;;;;;;;;;;;;;;
2289;;;;;;;;;;;;;;;;;;;;;
2302;;;;;;;;;;;;;;;;;;;;;
2315;;;;;;;;;;;;;;;;;;;;;
2328;;;;;;;;;;;;;;;;;;;;;
2341;;;;;;;;;;;;;;;;;;;;;
2354;;;;;;;;;;;;;;;;;;;;;
2367;;;;;;;;;;;;;;;;;;;;;
2380;;;;;;;;;;;;;;;;;;;;;
2393;;;;;;;;;;;;;;;;;;;;;
2406;;;;;;;;;;;;;;;;;;;;;
2419;;;;;;;;;;;;;;;;;;;;;
2432;;;;;;;;;;;;;;;;;;;;;
2445;;;;;;;;;;;;;;;;;;;;;
2458;;;;;;;;;;;;;;;;;;;;;
2471;;;;;;;;;;;;;;;;;;;;;
2484;;;;;;;;;;;;;;;;;;;;;
2497;;;;;;;;;;;;;;;;;;;;;
2510;;;;;;;;;;;;;;;;;;;;;
2523;;;;;;;;;;;;;;;;;;;;;
2536;;;;;;;;;;;;;;;;;;;;;
2549;;;;;;;;;;;;;;;;;;;;;
2562;;;;;;;;;;;;;;;;;;;;;
2575;;;;;;;;;;;;;;;;;;;;;
2588;;;;;;;;;;;;;;;;;;;;;
2601;;;;;;;;;;;;;;;;;;;;;
2614;;;;;;;;;;;;;;;;;;;;;
2627;;;;;;;;;;;;;;;;;;;;;
2640;;;;;;;;;;;;;;;;;;;;;
2653;;;;;;;;;;;;;;;;;;;;;
2666;;;;;;;;;;;;;;;;;;;;;
2679;;;;;;;;;;;;;;;;;;;;;
2692;;;;;;;;;;;;;;;;;;;;;
2705;;;;;;;;;;;;;;;;;;;;;
2718;;;;;;;;;;;;;;;;;;;;;
2731;;;;;;;;;;;;;;;;;;;;;
2744;;;;;;;;;;;;;;;;;;;;;
2757;;;;;;;;;;;;;;;;;;;;;
2770;;;;;;;;;;;;;;;;;;;;;
2783;;;;;;;;;;;;;;;;;;;;;
2796;;;;;;;;;;;;;;;;;;;;;
2809;;;;;;;;;;;;;;;;;;;;;
2822;;;;;;;;;;;;;;;;;;;;;
2835;;;;;;;;;;;;;;;;;;;;;
2848;;;;;;;;;;;;;;;;;;;;;
2861;;;;;;;;;;;;;;;;;;;;;
2874;;;;;;;;;;;;;;;;;;;;;
2887;;;;;;;;;;;;;;;;;;;;;
2900;;;;;;;;;;;;;;;;;;;;;
2913;;;;;;;;;;;;;;;;;;;;;
2926;;;;;;;;;;;;;;;;;;;;;
2939;;;;;;;;;;;;;;;;;;;;;
2952;;;;;;;;;;;;;;;;;;;;;
2965;;;;;;;;;;;;;;;;;;;;;
2978;;;;;;;;;;;;;;;;;;;;;
2991;;;;;;;;;;;;;;;;;;;;;
3004;;;;;;;;;;;;;;;;;;;;;
3017;;;;;;;;;;;;;;;;;;;;;
3030;;;;;;;;;;;;;;;;;;;;;
3043;;;;;;;;;;;;;;;;;;;;;
3056;;;;;;;;;;;;;;;;;;;;;
3069;;;;;;;;;;;;;;;;;;;;;
3082;;;;;;;;;;;;;;;;;;;;;
3095;;;;;;;;;;;;;;;;;;;;;
3108;;;;;;;;;;;;;;;;;;;;;
3121;;;;;;;;;;;;;;;;;;;;;
3134;;;;;;;;;;;;;;;;;;;;;
3147;;;;;;;;;;;;;;;;;;;;;
3160;;;;;;;;;;;;;;;;;;;;;
3173;;;;;;;;;;;;;;;;;;;;;
3186;;;;;;;;;;;;;;;;;;;;;
3199;;;;;;;;;;;;;;;;;;;;;
3212;;;;;;;;;;;;;;;;;;;;;
3225;;;;;;;;;;;;;;;;;;;;;
3238;;;;;;;;;;;;;;;;;;;;;
3251;;;;;;;;;;;;;;;;;;;;;
3264;;;;;;;;;;;;;;;;;;;;;
3277;;;;;;;;;;;;;;;;;;;;;
3290;;;;;;;;;;;;;;;;;;;;;
3303;;;;;;;;;;;;;;;;;;;;;
3316;;;;;;;;;;;;;;;;;;;;;
3325;;;;;;;;;;;;;;;;;;;;;