Folder: electrochemical_ORR_procesing_autolab/carbon_superP (part 5)

File: O2_1200rpm.txt
Index;Column 2 (V);Column 3 (V);Column 4 (V);Column 5 (V);Column 6 (V/s);Column 7 (V);Time (s);Potential applied (V);WE(1).Current (A);WE(1).Potential (V);Scan;Column 13 (RPM);ω (rad/s)
1;0;0.01;-1;-0.01;0.01;-0.00244;10699.2;-0.0146484;8.45947e-07;-0.0144409;3;1200;125.664
10;;;;;;;10701.4;-0.0366211;1.49841e-07;-0.0363159;3;;
19;;;;;;;10703.6;-0.05859375;-4.71497e-07;-0.0582581;3;;
28;;;;;;;10705.8;-0.0805664;-1.24268e-06;-0.0802002;3;;
37;;;;;;;10708;-0.102539;-2.50549e-06;-0.101868;3;;
46;;;;;;;10710.2;-0.124512;-4.68445e-06;-0.124115;3;;
55;;;;;;;10712.4;-0.146484;-8.57849e-06;-0.145996;3;;
64;;;;;;;10714.6;-0.168457;-1.53107e-05;-0.167847;3;;
73;;;;;;;10716.8;-0.19043;-2.7066e-05;-0.189575;3;;
82;;;;;;;10719;-0.212402;-4.72748e-05;-0.211792;3;;
91;;;;;;;10721.2;-0.234375;-8.21838e-05;-0.233765;3;;
100;;;;;;;10723.4;-0.256348;-0.000141541;-0.255615;3;;
109;;;;;;;10725.6;-0.27832;-0.000236115;-0.277344;3;;
118;;;;;;;10727.8;-0.300293;-0.000370178;-0.299561;3;;
127;;;;;;;10730;-0.322266;-0.000531921;-0.321533;3;;
136;;;;;;;10732.2;-0.344238;-0.000695496;-0.343445;3;;
145;;;;;;;10734.3;-0.366211;-0.000829468;-0.365295;3;;
154;;;;;;;10736.5;-0.388184;-0.00091217;-0.387299;3;;
163;;;;;;;10738.7;-0.410156;-0.000955811;-0.40921;3;;
172;;;;;;;10740.9;-0.432129;-0.000986938;-0.431091;3;;
181;;;;;;;10743.1;-0.454102;-0.00101318;-0.453064;3;;
190;;;;;;;10745.3;-0.476074;-0.00103485;-0.475006;3;;
199;;;;;;;10747.5;-0.498047;-0.00105072;-0.496979;3;;
208;;;;;;;10749.7;-0.52002;-0.00106445;-0.51889;3;;
217;;;;;;;10751.9;-0.541992;-0.00107391;-0.540833;3;;
226;;;;;;;10754.1;-0.563965;-0.00108124;-0.562744;3;;
235;;;;;;;10756.3;-0.5859375;-0.00108734;-0.584686;3;;
244;;;;;;;10758.5;-0.60791;-0.00109039;-0.606598;3;;
253;;;;;;;10760.7;-0.629883;-0.00109253;-0.628571;3;;
262;;;;;;;10762.9;-0.651855;-0.00108917;-0.650543;3;;
271;;;;;;;10765.1;-0.673828;-0.00108673;-0.672485;3;;
280;;;;;;;10767.3;-0.695801;-0.00108215;-0.694458;3;;
289;;;;;;;10769.5;-0.717773;-0.00107605;-0.716431;3;;
298;;;;;;;10771.7;-0.739746;-0.00107025;-0.738434;3;;
307;;;;;;;10773.9;-0.761719;-0.00106537;-0.761108;3;;
316;;;;;;;10776.1;-0.783691;-0.0010611;-0.782471;3;;
325;;;;;;;10778.3;-0.805664;-0.00105957;-0.804749;3;;
334;;;;;;;10780.5;-0.827637;-0.00106293;-0.827026;3;;
343;;;;;;;10782.7;-0.849609;-0.00106537;-0.849304;3;;
352;;;;;;;10784.9;-0.871582;-0.00107147;-0.870667;3;;
361;;;;;;;10787.1;-0.893555;-0.00108002;-0.892944;3;;
370;;;;;;;10789.3;-0.915527;-0.00108398;-0.915222;3;;
379;;;;;;;10791.5;-0.9375;-0.00108917;-0.937195;3;;
388;;;;;;;10793.7;-0.959473;-0.00109283;-0.958862;3;;
397;;;;;;;10795.9;-0.981445;-0.00109528;-0.980835;3;;
406;;;;;;;10798.1;-0.998535;-0.00109283;-0.99823;3;;
415;;;;;;;10800.3;-0.9765625;-0.00106049;-0.975952;3;;
424;;;;;;;10802.5;-0.95459;-0.00104309;-0.953674;3;;
433;;;;;;;10804.7;-0.932617;-0.00103058;-0.932312;3;;
442;;;;;;;10806.9;-0.910645;-0.00101959;-0.909424;3;;
451;;;;;;;10809.1;-0.888672;-0.00101135;-0.888062;3;;
460;;;;;;;10811.3;-0.866699;-0.00100616;-0.865479;3;;
469;;;;;;;10813.4;-0.844727;-0.00100372;-0.844116;3;;
478;;;;;;;10815.6;-0.822754;-0.0010022;-0.821838;3;;
487;;;;;;;10817.8;-0.800781;-0.00100677;-0.800476;3;;
496;;;;;;;10820;-0.778809;-0.0010141;-0.777893;3;;
505;;;;;;;10822.2;-0.756836;-0.00102173;-0.75592;3;;
514;;;;;;;10824.4;-0.734863;-0.00103485;-0.733521;3;;
523;;;;;;;10826.6;-0.712891;-0.00104645;-0.711578;3;;
532;;;;;;;10828.8;-0.690918;-0.00105713;-0.689484;3;;
541;;;;;;;10831;-0.668945;-0.00106689;-0.667633;3;;
550;;;;;;;10833.2;-0.646973;-0.00106903;-0.64566;3;;
559;;;;;;;10835.4;-0.625;-0.00106995;-0.623688;3;;
568;;;;;;;10837.6;-0.603027;-0.0010675;-0.601746;3;;
577;;;;;;;10839.8;-0.581055;-0.00105957;-0.579773;3;;
586;;;;;;;10842;-0.559082;-0.00105499;-0.557892;3;;
595;;;;;;;10844.2;-0.537109;-0.00104675;-0.535919;3;;
604;;;;;;;10846.4;-0.515137;-0.00103638;-0.514008;3;;
613;;;;;;;10848.6;-0.493164;-0.00102509;-0.492035;3;;
622;;;;;;;10850.8;-0.471191;-0.00101013;-0.470123;3;;
631;;;;;;;10853;-0.449219;-0.00098938;-0.448181;3;;
640;;;;;;;10855.2;-0.427246;-0.000957031;-0.42627;3;;
649;;;;;;;10857.4;-0.405273;-0.000908508;-0.404327;3;;
658;;;;;;;10859.6;-0.383301;-0.000836792;-0.382416;3;;
667;;;;;;;10861.8;-0.361328;-0.000740356;-0.360504;3;;
676;;;;;;;10864;-0.339355;-0.000622559;-0.338562;3;;
685;;;;;;;10866.2;-0.317383;-0.000493042;-0.31665;3;;
694;;;;;;;10868.4;-0.29541;-0.000365723;-0.294647;3;;
703;;;;;;;10870.6;-0.2734375;-0.000254272;-0.272797;3;;
712;;;;;;;10872.8;-0.251465;-0.000166473;-0.250854;3;;
721;;;;;;;10875;-0.229492;-0.00010376;-0.228912;3;;
730;;;;;;;10877.2;-0.20752;-6.23474e-05;-0.20697;3;;
739;;;;;;;10879.4;-0.185547;-3.63434e-05;-0.184967;3;;
748;;;;;;;10881.6;-0.163574;-2.04224e-05;-0.163116;3;;
757;;;;;;;10883.8;-0.141602;-1.08948e-05;-0.141205;3;;
766;;;;;;;10886;-0.119629;-5.30396e-06;-0.119202;3;;
775;;;;;;;10888.2;-0.09765625;-1.99585e-06;-0.0973511;3;;
784;;;;;;;10890.4;-0.0756836;-7.32422e-09;-0.07547;3;;
793;;;;;;;10892.6;-0.0537109;1.20361e-06;-0.0535889;3;;
802;;;;;;;10894.7;-0.0317383;2.00043e-06;-0.0314575;3;;
811;;;;;;;10896.9;-0.009765625;2.47742e-06;-0.00953064;3;;
820;;;;;;;10899.1;0.012207;2.69012e-06;0.0123993;3;;
829;;;;;;;10901.3;-0.009765625;1.01593e-06;-0.00942383;3;;
838;;;;;;;;;;;;;
847;;;;;;;;;;;;;
856;;;;;;;;;;;;;
865;;;;;;;;;;;;;
874;;;;;;;;;;;;;
883;;;;;;;;;;;;;
892;;;;;;;;;;;;;
901;;;;;;;;;;;;;
910;;;;;;;;;;;;;
919;;;;;;;;;;;;;
928;;;;;;;;;;;;;
937;;;;;;;;;;;;;
946;;;;;;;;;;;;;
955;;;;;;;;;;;;;
964;;;;;;;;;;;;;
973;;;;;;;;;;;;;
982;;;;;;;;;;;;;
991;;;;;;;;;;;;;
1000;;;;;;;;;;;;;
1009;;;;;;;;;;;;;
1018;;;;;;;;;;;;;
1027;;;;;;;;;;;;;
1036;;;;;;;;;;;;;
1045;;;;;;;;;;;;;
1054;;;;;;;;;;;;;
1063;;;;;;;;;;;;;
1072;;;;;;;;;;;;;
1081;;;;;;;;;;;;;
1090;;;;;;;;;;;;;
1099;;;;;;;;;;;;;
1108;;;;;;;;;;;;;
1117;;;;;;;;;;;;;
1126;;;;;;;;;;;;;
1135;;;;;;;;;;;;;
1144;;;;;;;;;;;;;
1153;;;;;;;;;;;;;
1162;;;;;;;;;;;;;
1171;;;;;;;;;;;;;
1180;;;;;;;;;;;;;
1189;;;;;;;;;;;;;
1198;;;;;;;;;;;;;
1207;;;;;;;;;;;;;
1216;;;;;;;;;;;;;
1225;;;;;;;;;;;;;
1234;;;;;;;;;;;;;
1243;;;;;;;;;;;;;
1252;;;;;;;;;;;;;
1261;;;;;;;;;;;;;
1270;;;;;;;;;;;;;
1279;;;;;;;;;;;;;
1288;;;;;;;;;;;;;
1297;;;;;;;;;;;;;
1306;;;;;;;;;;;;;
1315;;;;;;;;;;;;;
1324;;;;;;;;;;;;;
1333;;;;;;;;;;;;;
1342;;;;;;;;;;;;;
1351;;;;;;;;;;;;;
1360;;;;;;;;;;;;;
1369;;;;;;;;;;;;;
1378;;;;;;;;;;;;;
1387;;;;;;;;;;;;;
1396;;;;;;;;;;;;;
1405;;;;;;;;;;;;;
1414;;;;;;;;;;;;;
1423;;;;;;;;;;;;;
1432;;;;;;;;;;;;;
1441;;;;;;;;;;;;;
1450;;;;;;;;;;;;;
1459;;;;;;;;;;;;;
1468;;;;;;;;;;;;;
1477;;;;;;;;;;;;;
1486;;;;;;;;;;;;;
1495;;;;;;;;;;;;;
1504;;;;;;;;;;;;;
1513;;;;;;;;;;;;;
1522;;;;;;;;;;;;;
1531;;;;;;;;;;;;;
1540;;;;;;;;;;;;;
1549;;;;;;;;;;;;;
1558;;;;;;;;;;;;;
1567;;;;;;;;;;;;;
1576;;;;;;;;;;;;;
1585;;;;;;;;;;;;;
1594;;;;;;;;;;;;;
1603;;;;;;;;;;;;;
1612;;;;;;;;;;;;;
1621;;;;;;;;;;;;;
1630;;;;;;;;;;;;;
1639;;;;;;;;;;;;;
1648;;;;;;;;;;;;;
1657;;;;;;;;;;;;;
1666;;;;;;;;;;;;;
1675;;;;;;;;;;;;;
1684;;;;;;;;;;;;;
1693;;;;;;;;;;;;;
1702;;;;;;;;;;;;;
1711;;;;;;;;;;;;;
1720;;;;;;;;;;;;;
1729;;;;;;;;;;;;;
1738;;;;;;;;;;;;;
1747;;;;;;;;;;;;;
1756;;;;;;;;;;;;;
1765;;;;;;;;;;;;;
1774;;;;;;;;;;;;;
1783;;;;;;;;;;;;;
1792;;;;;;;;;;;;;
1801;;;;;;;;;;;;;
1810;;;;;;;;;;;;;
1819;;;;;;;;;;;;;
1828;;;;;;;;;;;;;
1837;;;;;;;;;;;;;
1846;;;;;;;;;;;;;
1855;;;;;;;;;;;;;
1864;;;;;;;;;;;;;
1873;;;;;;;;;;;;;
1882;;;;;;;;;;;;;
1891;;;;;;;;;;;;;
1900;;;;;;;;;;;;;
1909;;;;;;;;;;;;;
1918;;;;;;;;;;;;;
1927;;;;;;;;;;;;;
1936;;;;;;;;;;;;;
1945;;;;;;;;;;;;;
1954;;;;;;;;;;;;;
1963;;;;;;;;;;;;;
1972;;;;;;;;;;;;;
1981;;;;;;;;;;;;;
1990;;;;;;;;;;;;;
1999;;;;;;;;;;;;;
2008;;;;;;;;;;;;;
2017;;;;;;;;;;;;;
2026;;;;;;;;;;;;;
2035;;;;;;;;;;;;;
2044;;;;;;;;;;;;;
2053;;;;;;;;;;;;;
2062;;;;;;;;;;;;;
2071;;;;;;;;;;;;;
2080;;;;;;;;;;;;;
2089;;;;;;;;;;;;;
2098;;;;;;;;;;;;;
2107;;;;;;;;;;;;;
2116;;;;;;;;;;;;;
2125;;;;;;;;;;;;;
2134;;;;;;;;;;;;;
2143;;;;;;;;;;;;;
2152;;;;;;;;;;;;;
2161;;;;;;;;;;;;;
2170;;;;;;;;;;;;;
2179;;;;;;;;;;;;;
2188;;;;;;;;;;;;;
2197;;;;;;;;;;;;;
2206;;;;;;;;;;;;;
2215;;;;;;;;;;;;;
2224;;;;;;;;;;;;;
2233;;;;;;;;;;;;;
2242;;;;;;;;;;;;;
2251;;;;;;;;;;;;;
2260;;;;;;;;;;;;;
2269;;;;;;;;;;;;;
2278;;;;;;;;;;;;;
2287;;;;;;;;;;;;;
2296;;;;;;;;;;;;;
2305;;;;;;;;;;;;;
2314;;;;;;;;;;;;;
2323;;;;;;;;;;;;;
2332;;;;;;;;;;;;;
2341;;;;;;;;;;;;;
2350;;;;;;;;;;;;;
2359;;;;;;;;;;;;;
2368;;;;;;;;;;;;;
2377;;;;;;;;;;;;;
2386;;;;;;;;;;;;;
2395;;;;;;;;;;;;;
2404;;;;;;;;;;;;;
2413;;;;;;;;;;;;;
2422;;;;;;;;;;;;;
2431;;;;;;;;;;;;;
2440;;;;;;;;;;;;;
2449;;;;;;;;;;;;;
2458;;;;;;;;;;;;;
2467;;;;;;;;;;;;;
2476;;;;;;;;;;;;;
2485;;;;;;;;;;;;;
2494;;;;;;;;;;;;;
2495;;;;;;;;;;;;;

File: O2_1400rpm.txt
Index;Column 2 (V);Column 3 (V);Column 4 (V);Column 5 (V);Column 6 (V/s);Column 7 (V);Time (s);Potential applied (V);WE(1).Current (A);WE(1).Potential (V);Scan;Column 13 (RPM);ω (rad/s)
1;0;0.01;-1;-0.01;0.01;-0.00244;11957.8;-0.0146484;7.35168e-07;-0.0143433;3;1400;146.608
10;;;;;;;11960;-0.0366211;7.38525e-08;-0.0362915;3;;
19;;;;;;;11962.2;-0.05859375;-5.17578e-07;-0.0582275;3;;
28;;;;;;;11964.4;-0.0805664;-1.30737e-06;-0.0801392;3;;
37;;;;;;;11966.6;-0.102539;-2.50885e-06;-0.101898;3;;
46;;;;;;;11968.8;-0.124512;-4.65088e-06;-0.124115;3;;
55;;;;;;;11971;-0.146484;-8.43811e-06;-0.146027;3;;
64;;;;;;;11973.2;-0.168457;-1.51215e-05;-0.167847;3;;
73;;;;;;;11975.4;-0.19043;-2.67151e-05;-0.189575;3;;
82;;;;;;;11977.6;-0.212402;-4.66431e-05;-0.211792;3;;
91;;;;;;;11979.8;-0.234375;-8.14819e-05;-0.233704;3;;
100;;;;;;;11982;-0.256348;-0.000141266;-0.255585;3;;
109;;;;;;;11984.2;-0.27832;-0.000236267;-0.277374;3;;
118;;;;;;;11986.4;-0.300293;-0.000371704;-0.299591;3;;
127;;;;;;;11988.6;-0.322266;-0.00053772;-0.321503;3;;
136;;;;;;;11990.8;-0.344238;-0.000707092;-0.343414;3;;
145;;;;;;;11993;-0.366211;-0.00085144;-0.365356;3;;
154;;;;;;;11995.2;-0.388184;-0.000952759;-0.387299;3;;
163;;;;;;;11997.4;-0.410156;-0.0010144;-0.40921;3;;
172;;;;;;;11999.6;-0.432129;-0.00105591;-0.431122;3;;
181;;;;;;;12001.8;-0.454102;-0.00108887;-0.453094;3;;
190;;;;;;;12004;-0.476074;-0.00111572;-0.475037;3;;
199;;;;;;;12006.2;-0.498047;-0.00113434;-0.496979;3;;
208;;;;;;;12008.4;-0.52002;-0.00114685;-0.518921;3;;
217;;;;;;;12010.6;-0.541992;-0.00115936;-0.540802;3;;
226;;;;;;;12012.8;-0.563965;-0.00116821;-0.562683;3;;
235;;;;;;;12015;-0.5859375;-0.0011734;-0.584686;3;;
244;;;;;;;12017.2;-0.60791;-0.00117828;-0.606628;3;;
253;;;;;;;12019.4;-0.629883;-0.00118195;-0.628571;3;;
262;;;;;;;12021.6;-0.651855;-0.00117645;-0.650482;3;;
271;;;;;;;12023.8;-0.673828;-0.00117371;-0.672485;3;;
280;;;;;;;12026;-0.695801;-0.00117035;-0.694458;3;;
289;;;;;;;12028.2;-0.717773;-0.00116486;-0.716431;3;;
298;;;;;;;12030.3;-0.739746;-0.00115723;-0.738434;3;;
307;;;;;;;12032.5;-0.761719;-0.00115265;-0.760803;3;;
316;;;;;;;12034.7;-0.783691;-0.00114838;-0.782776;3;;
325;;;;;;;12036.9;-0.805664;-0.0011441;-0.804749;3;;
334;;;;;;;12039.1;-0.827637;-0.00114563;-0.826721;3;;
343;;;;;;;12041.3;-0.849609;-0.00114929;-0.848999;3;;
352;;;;;;;12043.5;-0.871582;-0.00115234;-0.870972;3;;
361;;;;;;;12045.7;-0.893555;-0.00116089;-0.892944;3;;
370;;;;;;;12047.9;-0.915527;-0.00116882;-0.914917;3;;
379;;;;;;;12050.1;-0.9375;-0.00117096;-0.936584;3;;
388;;;;;;;12052.3;-0.959473;-0.00117706;-0.958557;3;;
397;;;;;;;12054.5;-0.981445;-0.00118347;-0.98053;3;;
406;;;;;;;12056.7;-0.998535;-0.00118073;-0.99823;3;;
415;;;;;;;12058.9;-0.9765625;-0.00114655;-0.976257;3;;
424;;;;;;;12061.1;-0.95459;-0.00112762;-0.954285;3;;
433;;;;;;;12063.3;-0.932617;-0.0011145;-0.932312;3;;
442;;;;;;;12065.5;-0.910645;-0.00110291;-0.910339;3;;
451;;;;;;;12067.7;-0.888672;-0.00109467;-0.888367;3;;
460;;;;;;;12069.9;-0.866699;-0.00108948;-0.866089;3;;
469;;;;;;;12072.1;-0.844727;-0.00108551;-0.844421;3;;
478;;;;;;;12074.3;-0.822754;-0.00108856;-0.821838;3;;
487;;;;;;;12076.5;-0.800781;-0.00109436;-0.799561;3;;
496;;;;;;;12078.7;-0.778809;-0.00110229;-0.778198;3;;
505;;;;;;;12080.9;-0.756836;-0.00111237;-0.756226;3;;
514;;;;;;;12083.1;-0.734863;-0.00113159;-0.733521;3;;
523;;;;;;;12085.3;-0.712891;-0.0011441;-0.711609;3;;
532;;;;;;;12087.5;-0.690918;-0.0011554;-0.689545;3;;
541;;;;;;;12089.7;-0.668945;-0.00116333;-0.667603;3;;
550;;;;;;;12091.9;-0.646973;-0.00116608;-0.645691;3;;
559;;;;;;;12094.1;-0.625;-0.00116547;-0.623718;3;;
568;;;;;;;12096.3;-0.603027;-0.0011615;-0.601715;3;;
577;;;;;;;12098.5;-0.581055;-0.00115662;-0.579803;3;;
586;;;;;;;12100.7;-0.559082;-0.00114716;-0.557953;3;;
595;;;;;;;12102.9;-0.537109;-0.00113922;-0.535919;3;;
604;;;;;;;12105.1;-0.515137;-0.00112823;-0.514008;3;;
613;;;;;;;12107.3;-0.493164;-0.00111389;-0.492096;3;;
622;;;;;;;12109.4;-0.471191;-0.00109406;-0.470123;3;;
631;;;;;;;12111.6;-0.449219;-0.00106842;-0.448181;3;;
640;;;;;;;12113.8;-0.427246;-0.00102936;-0.42627;3;;
649;;;;;;;12116;-0.405273;-0.000970764;-0.404327;3;;
658;;;;;;;12118.2;-0.383301;-0.000890198;-0.382385;3;;
667;;;;;;;12120.4;-0.361328;-0.000783081;-0.360443;3;;
676;;;;;;;12122.6;-0.339355;-0.000652771;-0.338623;3;;
685;;;;;;;12124.8;-0.317383;-0.000513916;-0.31665;3;;
694;;;;;;;12127;-0.29541;-0.000378571;-0.294678;3;;
703;;;;;;;12129.2;-0.2734375;-0.000260193;-0.272827;3;;
712;;;;;;;12131.4;-0.251465;-0.00016864;-0.250824;3;;
721;;;;;;;12133.6;-0.229492;-0.000104004;-0.228943;3;;
730;;;;;;;12135.8;-0.20752;-6.14624e-05;-0.206909;3;;
739;;;;;;;12138;-0.185547;-3.53241e-05;-0.185059;3;;
748;;;;;;;12140.2;-0.163574;-1.95801e-05;-0.163055;3;;
757;;;;;;;12142.4;-0.141602;-1.02844e-05;-0.141174;3;;
766;;;;;;;12144.6;-0.119629;-4.91028e-06;-0.119232;3;;
775;;;;;;;12146.8;-0.09765625;-1.81244e-06;-0.0973206;3;;
784;;;;;;;12149;-0.0756836;-1.83105e-09;-0.0753784;3;;
793;;;;;;;12151.2;-0.0537109;1.08368e-06;-0.0535583;3;;
802;;;;;;;12153.4;-0.0317383;1.81946e-06;-0.0314453;3;;
811;;;;;;;12155.6;-0.009765625;2.27905e-06;-0.00948486;3;;
820;;;;;;;12157.8;0.012207;2.51678e-06;0.0124664;3;;
829;;;;;;;12160;-0.009765625;9.39331e-07;-0.00953979;3;;
838;;;;;;;;;;;;;
847;;;;;;;;;;;;;
856;;;;;;;;;;;;;
865;;;;;;;;;;;;;
874;;;;;;;;;;;;;
883;;;;;;;;;;;;;
892;;;;;;;;;;;;;
901;;;;;;;;;;;;;
910;;;;;;;;;;;;;
919;;;;;;;;;;;;;
928;;;;;;;;;;;;;
937;;;;;;;;;;;;;
946;;;;;;;;;;;;;
955;;;;;;;;;;;;;
964;;;;;;;;;;;;;
973;;;;;;;;;;;;;
982;;;;;;;;;;;;;
991;;;;;;;;;;;;;
1000;;;;;;;;;;;;;
1009;;;;;;;;;;;;;
1018;;;;;;;;;;;;;
1027;;;;;;;;;;;;;
1036;;;;;;;;;;;;;
1045;;;;;;;;;;;;;
1054;;;;;;;;;;;;;
1063;;;;;;;;;;;;;
1072;;;;;;;;;;;;;
1081;;;;;;;;;;;;;
1090;;;;;;;;;;;;;
1099;;;;;;;;;;;;;
1108;;;;;;;;;;;;;
1117;;;;;;;;;;;;;
1126;;;;;;;;;;;;;
1135;;;;;;;;;;;;;
1144;;;;;;;;;;;;;
1153;;;;;;;;;;;;;
1162;;;;;;;;;;;;;
1171;;;;;;;;;;;;;
1180;;;;;;;;;;;;;
1189;;;;;;;;;;;;;
1198;;;;;;;;;;;;;
1207;;;;;;;;;;;;;
1216;;;;;;;;;;;;;
1225;;;;;;;;;;;;;
1234;;;;;;;;;;;;;
1243;;;;;;;;;;;;;
1252;;;;;;;;;;;;;
1261;;;;;;;;;;;;;
1270;;;;;;;;;;;;;
1279;;;;;;;;;;;;;
1288;;;;;;;;;;;;;
1297;;;;;;;;;;;;;
1306;;;;;;;;;;;;;
1315;;;;;;;;;;;;;
1324;;;;;;;;;;;;;
1333;;;;;;;;;;;;;
1342;;;;;;;;;;;;;
1351;;;;;;;;;;;;;
1360;;;;;;;;;;;;;
1369;;;;;;;;;;;;;
1378;;;;;;;;;;;;;
1387;;;;;;;;;;;;;
1396;;;;;;;;;;;;;
1405;;;;;;;;;;;;;
1414;;;;;;;;;;;;;
1423;;;;;;;;;;;;;
1432;;;;;;;;;;;;;
1441;;;;;;;;;;;;;
1450;;;;;;;;;;;;;
1459;;;;;;;;;;;;;
1468;;;;;;;;;;;;;
1477;;;;;;;;;;;;;
1486;;;;;;;;;;;;;
1495;;;;;;;;;;;;;
1504;;;;;;;;;;;;;
1513;;;;;;;;;;;;;
1522;;;;;;;;;;;;;
1531;;;;;;;;;;;;;
1540;;;;;;;;;;;;;
1549;;;;;;;;;;;;;
1558;;;;;;;;;;;;;
1567;;;;;;;;;;;;;
1576;;;;;;;;;;;;;
1585;;;;;;;;;;;;;
1594;;;;;;;;;;;;;
1603;;;;;;;;;;;;;
1612;;;;;;;;;;;;;
1621;;;;;;;;;;;;;
1630;;;;;;;;;;;;;
1639;;;;;;;;;;;;;
1648;;;;;;;;;;;;;
1657;;;;;;;;;;;;;
1666;;;;;;;;;;;;;
1675;;;;;;;;;;;;;
1684;;;;;;;;;;;;;
1693;;;;;;;;;;;;;
1702;;;;;;;;;;;;;
1711;;;;;;;;;;;;;
1720;;;;;;;;;;;;;
1729;;;;;;;;;;;;;
1738;;;;;;;;;;;;;
1747;;;;;;;;;;;;;
1756;;;;;;;;;;;;;
1765;;;;;;;;;;;;;
1774;;;;;;;;;;;;;
1783;;;;;;;;;;;;;
1792;;;;;;;;;;;;;
1801;;;;;;;;;;;;;
1810;;;;;;;;;;;;;
1819;;;;;;;;;;;;;
1828;;;;;;;;;;;;;
1837;;;;;;;;;;;;;
1846;;;;;;;;;;;;;
1855;;;;;;;;;;;;;
1864;;;;;;;;;;;;;
1873;;;;;;;;;;;;;
1882;;;;;;;;;;;;;
1891;;;;;;;;;;;;;
1900;;;;;;;;;;;;;
1909;;;;;;;;;;;;;
1918;;;;;;;;;;;;;
1927;;;;;;;;;;;;;
1936;;;;;;;;;;;;;
1945;;;;;;;;;;;;;
1954;;;;;;;;;;;;;
1963;;;;;;;;;;;;;
1972;;;;;;;;;;;;;
1981;;;;;;;;;;;;;
1990;;;;;;;;;;;;;
1999;;;;;;;;;;;;;
2008;;;;;;;;;;;;;
2017;;;;;;;;;;;;;
2026;;;;;;;;;;;;;
2035;;;;;;;;;;;;;
2044;;;;;;;;;;;;;
2053;;;;;;;;;;;;;
2062;;;;;;;;;;;;;
2071;;;;;;;;;;;;;
2080;;;;;;;;;;;;;
2089;;;;;;;;;;;;;
2098;;;;;;;;;;;;;
2107;;;;;;;;;;;;;
2116;;;;;;;;;;;;;
2125;;;;;;;;;;;;;
2134;;;;;;;;;;;;;
2143;;;;;;;;;;;;;
2152;;;;;;;;;;;;;
2161;;;;;;;;;;;;;
2170;;;;;;;;;;;;;
2179;;;;;;;;;;;;;
2188;;;;;;;;;;;;;
2197;;;;;;;;;;;;;
2206;;;;;;;;;;;;;
2215;;;;;;;;;;;;;
2224;;;;;;;;;;;;;
2233;;;;;;;;;;;;;
2242;;;;;;;;;;;;;
2251;;;;;;;;;;;;;
2260;;;;;;;;;;;;;
2269;;;;;;;;;;;;;
2278;;;;;;;;;;;;;
2287;;;;;;;;;;;;;
2296;;;;;;;;;;;;;
2305;;;;;;;;;;;;;
2314;;;;;;;;;;;;;
2323;;;;;;;;;;;;;
2332;;;;;;;;;;;;;
2341;;;;;;;;;;;;;
2350;;;;;;;;;;;;;
2359;;;;;;;;;;;;;
2368;;;;;;;;;;;;;
2377;;;;;;;;;;;;;
2386;;;;;;;;;;;;;
2395;;;;;;;;;;;;;
2404;;;;;;;;;;;;;
2413;;;;;;;;;;;;;
2422;;;;;;;;;;;;;
2431;;;;;;;;;;;;;
2440;;;;;;;;;;;;;
2449;;;;;;;;;;;;;
2458;;;;;;;;;;;;;
2467;;;;;;;;;;;;;
2476;;;;;;;;;;;;;
2485;;;;;;;;;;;;;
2494;;;;;;;;;;;;;
2495;;;;;;;;;;;;;