Folder: electrochemical_ORR_procesing_autolab/carbon_superP (part 2)

File: N2_2000rpm.txt
Index;Column 2 (V);Column 3 (V);Column 4 (V);Column 5 (V);Column 6 (V/s);Column 7 (V);Time (s);Potential applied (V);WE(1).Current (A);WE(1).Potential (V);Scan;Column 13 (RPM);ω (rad/s);Frequency (Hz);Z' (Ω);-Z'' (Ω);Z (Ω);-Phase (°);Time (s);Y' (Mho);-Y'' (Mho)
1;0;0.01;-1;-0.01;0.01;-0.00244;4554.47;-0.0146484;5.67017e-07;-0.0143768;3;2000;209.44;100000;32.2678;2.49925;32.3644;4.42892;3935.1;0.0308059;0.00238602
13;;;;;;;4557.39;-0.0439453;1.9989e-07;-0.0436157;3;;;6309.6;32.3567;2.78306;32.4762;4.91601;3961.3;0.0306785;0.00263872
25;;;;;;;4560.32;-0.0732422;-2.70691e-08;-0.072937;3;;;398.11;38.1644;15.3011;41.1175;21.8472;3985.82;0.0225738;0.00905045
37;;;;;;;4563.25;-0.102539;-1.99585e-07;-0.101959;3;;;25.119;78.4776;128.394;150.479;58.5657;4018.69;0.00346574;0.00567017
49;;;;;;;4566.18;-0.131836;-3.38135e-07;-0.131439;3;;;1.5849;329.891;1248.28;1291.14;75.1965;4055.08;0.000197891;0.000748804
61;;;;;;;4569.11;-0.161133;-4.62036e-07;-0.160767;3;;;0.1;3021.36;14344.8;14659.5;78.106;4129.24;1.40593e-05;6.67506e-05
73;;;;;;;4572.04;-0.19043;-5.67932e-07;-0.189911;3;;;;;;;;;;
85;;;;;;;4574.97;-0.219727;-6.87561e-07;-0.219055;3;;;;;;;;;;
97;;;;;;;4577.9;-0.249023;-7.82166e-07;-0.248383;3;;;;;;;;;;
109;;;;;;;4580.83;-0.27832;-8.84094e-07;-0.277618;3;;;;;;;;;;
121;;;;;;;4583.76;-0.307617;-9.99451e-07;-0.306885;3;;;;;;;;;;
133;;;;;;;4586.69;-0.336914;-1.13464e-06;-0.336029;3;;;;;;;;;;
145;;;;;;;4589.62;-0.366211;-1.27441e-06;-0.365326;3;;;;;;;;;;
157;;;;;;;4592.55;-0.395508;-1.45447e-06;-0.394562;3;;;;;;;;;;
169;;;;;;;4595.48;-0.424805;-1.62964e-06;-0.423767;3;;;;;;;;;;
181;;;;;;;4598.41;-0.454102;-1.75873e-06;-0.452942;3;;;;;;;;;;
193;;;;;;;4601.34;-0.483398;-1.86157e-06;-0.482239;3;;;;;;;;;;
205;;;;;;;4604.27;-0.512695;-1.95374e-06;-0.511322;3;;;;;;;;;;
217;;;;;;;4607.2;-0.541992;-2.05109e-06;-0.54068;3;;;;;;;;;;
229;;;;;;;4610.13;-0.571289;-2.17773e-06;-0.569855;3;;;;;;;;;;
241;;;;;;;4613.06;-0.600586;-2.3175e-06;-0.599121;3;;;;;;;;;;
253;;;;;;;4615.99;-0.629883;-2.47711e-06;-0.628326;3;;;;;;;;;;
265;;;;;;;4618.92;-0.65918;-2.63031e-06;-0.657623;3;;;;;;;;;;
277;;;;;;;4621.85;-0.688477;-2.77588e-06;-0.68689;3;;;;;;;;;;
289;;;;;;;4624.78;-0.717773;-2.91107e-06;-0.716095;3;;;;;;;;;;
301;;;;;;;4627.71;-0.74707;-3.05511e-06;-0.745819;3;;;;;;;;;;
313;;;;;;;4630.64;-0.776367;-3.23975e-06;-0.775452;3;;;;;;;;;;
325;;;;;;;4633.57;-0.805664;-3.44086e-06;-0.804749;3;;;;;;;;;;
337;;;;;;;4636.5;-0.834961;-3.67432e-06;-0.834351;3;;;;;;;;;;
349;;;;;;;4639.43;-0.864258;-3.91541e-06;-0.863342;3;;;;;;;;;;
361;;;;;;;4642.36;-0.893555;-4.15344e-06;-0.892639;3;;;;;;;;;;
373;;;;;;;4645.29;-0.922852;-4.41284e-06;-0.922241;3;;;;;;;;;;
385;;;;;;;4648.22;-0.952148;-4.6875E-06;-0.951843;3;;;;;;;;;;
397;;;;;;;4651.14;-0.981445;-4.96521e-06;-0.98114;3;;;;;;;;;;
409;;;;;;;4654.07;-0.991211;-2.8067e-06;-0.990601;3;;;;;;;;;;
421;;;;;;;4657;-0.961914;-1.00891e-06;-0.960999;3;;;;;;;;;;
433;;;;;;;4659.93;-0.932617;-2.88696e-07;-0.932312;3;;;;;;;;;;
445;;;;;;;4662.86;-0.90332;9.29871e-08;-0.90332;3;;;;;;;;;;
457;;;;;;;4665.79;-0.874023;3.25012e-07;-0.873413;3;;;;;;;;;;
469;;;;;;;4668.72;-0.844727;4.79736e-07;-0.843506;3;;;;;;;;;;
481;;;;;;;4671.65;-0.81543;5.96924e-07;-0.814819;3;;;;;;;;;;
493;;;;;;;4674.58;-0.786133;6.73828e-07;-0.784912;3;;;;;;;;;;
505;;;;;;;4677.51;-0.756836;7.37915e-07;-0.75592;3;;;;;;;;;;
517;;;;;;;4680.44;-0.727539;7.76672e-07;-0.726501;3;;;;;;;;;;
529;;;;;;;4683.37;-0.698242;8.21228e-07;-0.697144;3;;;;;;;;;;
541;;;;;;;4686.3;-0.668945;8.47473e-07;-0.667938;3;;;;;;;;;;
553;;;;;;;4689.23;-0.639648;8.74329e-07;-0.638641;3;;;;;;;;;;
565;;;;;;;4692.16;-0.610352;8.90503e-07;-0.609253;3;;;;;;;;;;
577;;;;;;;4695.09;-0.581055;8.92944e-07;-0.580261;3;;;;;;;;;;
589;;;;;;;4698.02;-0.551758;8.99048e-07;-0.550903;3;;;;;;;;;;
601;;;;;;;4700.95;-0.522461;9.00879e-07;-0.521576;3;;;;;;;;;;
613;;;;;;;4703.88;-0.493164;9.14307e-07;-0.49231;3;;;;;;;;;;
625;;;;;;;4706.81;-0.463867;9.37195e-07;-0.463257;3;;;;;;;;;;
637;;;;;;;4709.74;-0.43457;9.6283e-07;-0.433807;3;;;;;;;;;;
649;;;;;;;4712.67;-0.405273;1.02203e-06;-0.404541;3;;;;;;;;;;
661;;;;;;;4715.6;-0.375977;1.07056e-06;-0.375366;3;;;;;;;;;;
673;;;;;;;4718.53;-0.34668;1.13007e-06;-0.3461;3;;;;;;;;;;
685;;;;;;;4721.46;-0.317383;1.1911e-06;-0.316864;3;;;;;;;;;;
697;;;;;;;4724.39;-0.288086;1.23749e-06;-0.287659;3;;;;;;;;;;
709;;;;;;;4727.32;-0.258789;1.2793e-06;-0.258362;3;;;;;;;;;;
721;;;;;;;4730.25;-0.229492;1.31836e-06;-0.229095;3;;;;;;;;;;
733;;;;;;;4733.18;-0.200195;1.35315e-06;-0.199768;3;;;;;;;;;;
745;;;;;;;4736.11;-0.170898;1.39618e-06;-0.170593;3;;;;;;;;;;
757;;;;;;;4739.04;-0.141602;1.43829e-06;-0.141418;3;;;;;;;;;;
769;;;;;;;4741.97;-0.112305;1.4679e-06;-0.112;3;;;;;;;;;;
781;;;;;;;4744.9;-0.0830078;1.521e-06;-0.0829468;3;;;;;;;;;;
793;;;;;;;4747.82;-0.0537109;1.55945e-06;-0.0535889;3;;;;;;;;;;
805;;;;;;;4750.75;-0.0244141;1.61285e-06;-0.0241272;3;;;;;;;;;;
817;;;;;;;4753.68;0.00488281;1.68152e-06;0.00513306;3;;;;;;;;;;
829;;;;;;;4756.61;-0.009765625;6.81763e-07;-0.00937805;3;;;;;;;;;;
841;;;;;;;;;;;;;;;;;;;;;
853;;;;;;;;;;;;;;;;;;;;;
865;;;;;;;;;;;;;;;;;;;;;
877;;;;;;;;;;;;;;;;;;;;;
889;;;;;;;;;;;;;;;;;;;;;
901;;;;;;;;;;;;;;;;;;;;;
913;;;;;;;;;;;;;;;;;;;;;
925;;;;;;;;;;;;;;;;;;;;;
937;;;;;;;;;;;;;;;;;;;;;
949;;;;;;;;;;;;;;;;;;;;;
961;;;;;;;;;;;;;;;;;;;;;
973;;;;;;;;;;;;;;;;;;;;;
985;;;;;;;;;;;;;;;;;;;;;
997;;;;;;;;;;;;;;;;;;;;;
1009;;;;;;;;;;;;;;;;;;;;;
1021;;;;;;;;;;;;;;;;;;;;;
1033;;;;;;;;;;;;;;;;;;;;;
1045;;;;;;;;;;;;;;;;;;;;;
1057;;;;;;;;;;;;;;;;;;;;;
1069;;;;;;;;;;;;;;;;;;;;;
1081;;;;;;;;;;;;;;;;;;;;;
1093;;;;;;;;;;;;;;;;;;;;;
1105;;;;;;;;;;;;;;;;;;;;;
1117;;;;;;;;;;;;;;;;;;;;;
1129;;;;;;;;;;;;;;;;;;;;;
1141;;;;;;;;;;;;;;;;;;;;;
1153;;;;;;;;;;;;;;;;;;;;;
1165;;;;;;;;;;;;;;;;;;;;;
1177;;;;;;;;;;;;;;;;;;;;;
1189;;;;;;;;;;;;;;;;;;;;;
1201;;;;;;;;;;;;;;;;;;;;;
1213;;;;;;;;;;;;;;;;;;;;;
1225;;;;;;;;;;;;;;;;;;;;;
1237;;;;;;;;;;;;;;;;;;;;;
1249;;;;;;;;;;;;;;;;;;;;;
1261;;;;;;;;;;;;;;;;;;;;;
1273;;;;;;;;;;;;;;;;;;;;;
1285;;;;;;;;;;;;;;;;;;;;;
1297;;;;;;;;;;;;;;;;;;;;;
1309;;;;;;;;;;;;;;;;;;;;;
1321;;;;;;;;;;;;;;;;;;;;;
1333;;;;;;;;;;;;;;;;;;;;;
1345;;;;;;;;;;;;;;;;;;;;;
1357;;;;;;;;;;;;;;;;;;;;;
1369;;;;;;;;;;;;;;;;;;;;;
1381;;;;;;;;;;;;;;;;;;;;;
1393;;;;;;;;;;;;;;;;;;;;;
1405;;;;;;;;;;;;;;;;;;;;;
1417;;;;;;;;;;;;;;;;;;;;;
1429;;;;;;;;;;;;;;;;;;;;;
1441;;;;;;;;;;;;;;;;;;;;;
1453;;;;;;;;;;;;;;;;;;;;;
1465;;;;;;;;;;;;;;;;;;;;;
1477;;;;;;;;;;;;;;;;;;;;;
1489;;;;;;;;;;;;;;;;;;;;;
1501;;;;;;;;;;;;;;;;;;;;;
1513;;;;;;;;;;;;;;;;;;;;;
1525;;;;;;;;;;;;;;;;;;;;;
1537;;;;;;;;;;;;;;;;;;;;;
1549;;;;;;;;;;;;;;;;;;;;;
1561;;;;;;;;;;;;;;;;;;;;;
1573;;;;;;;;;;;;;;;;;;;;;
1585;;;;;;;;;;;;;;;;;;;;;
1597;;;;;;;;;;;;;;;;;;;;;
1609;;;;;;;;;;;;;;;;;;;;;
1621;;;;;;;;;;;;;;;;;;;;;
1633;;;;;;;;;;;;;;;;;;;;;
1645;;;;;;;;;;;;;;;;;;;;;
1657;;;;;;;;;;;;;;;;;;;;;
1669;;;;;;;;;;;;;;;;;;;;;
1681;;;;;;;;;;;;;;;;;;;;;
1693;;;;;;;;;;;;;;;;;;;;;
1705;;;;;;;;;;;;;;;;;;;;;
1717;;;;;;;;;;;;;;;;;;;;;
1729;;;;;;;;;;;;;;;;;;;;;
1741;;;;;;;;;;;;;;;;;;;;;
1753;;;;;;;;;;;;;;;;;;;;;
1765;;;;;;;;;;;;;;;;;;;;;
1777;;;;;;;;;;;;;;;;;;;;;
1789;;;;;;;;;;;;;;;;;;;;;
1801;;;;;;;;;;;;;;;;;;;;;
1813;;;;;;;;;;;;;;;;;;;;;
1825;;;;;;;;;;;;;;;;;;;;;
1837;;;;;;;;;;;;;;;;;;;;;
1849;;;;;;;;;;;;;;;;;;;;;
1861;;;;;;;;;;;;;;;;;;;;;
1873;;;;;;;;;;;;;;;;;;;;;
1885;;;;;;;;;;;;;;;;;;;;;
1897;;;;;;;;;;;;;;;;;;;;;
1909;;;;;;;;;;;;;;;;;;;;;
1921;;;;;;;;;;;;;;;;;;;;;
1933;;;;;;;;;;;;;;;;;;;;;
1945;;;;;;;;;;;;;;;;;;;;;
1957;;;;;;;;;;;;;;;;;;;;;
1969;;;;;;;;;;;;;;;;;;;;;
1981;;;;;;;;;;;;;;;;;;;;;
1993;;;;;;;;;;;;;;;;;;;;;
2005;;;;;;;;;;;;;;;;;;;;;
2017;;;;;;;;;;;;;;;;;;;;;
2029;;;;;;;;;;;;;;;;;;;;;
2041;;;;;;;;;;;;;;;;;;;;;
2053;;;;;;;;;;;;;;;;;;;;;
2065;;;;;;;;;;;;;;;;;;;;;
2077;;;;;;;;;;;;;;;;;;;;;
2089;;;;;;;;;;;;;;;;;;;;;
2101;;;;;;;;;;;;;;;;;;;;;
2113;;;;;;;;;;;;;;;;;;;;;
2125;;;;;;;;;;;;;;;;;;;;;
2137;;;;;;;;;;;;;;;;;;;;;
2149;;;;;;;;;;;;;;;;;;;;;
2161;;;;;;;;;;;;;;;;;;;;;
2173;;;;;;;;;;;;;;;;;;;;;
2185;;;;;;;;;;;;;;;;;;;;;
2197;;;;;;;;;;;;;;;;;;;;;
2209;;;;;;;;;;;;;;;;;;;;;
2221;;;;;;;;;;;;;;;;;;;;;
2233;;;;;;;;;;;;;;;;;;;;;
2245;;;;;;;;;;;;;;;;;;;;;
2257;;;;;;;;;;;;;;;;;;;;;
2269;;;;;;;;;;;;;;;;;;;;;
2281;;;;;;;;;;;;;;;;;;;;;
2293;;;;;;;;;;;;;;;;;;;;;
2305;;;;;;;;;;;;;;;;;;;;;
2317;;;;;;;;;;;;;;;;;;;;;
2329;;;;;;;;;;;;;;;;;;;;;
2341;;;;;;;;;;;;;;;;;;;;;
2353;;;;;;;;;;;;;;;;;;;;;
2365;;;;;;;;;;;;;;;;;;;;;
2377;;;;;;;;;;;;;;;;;;;;;
2389;;;;;;;;;;;;;;;;;;;;;
2401;;;;;;;;;;;;;;;;;;;;;
2413;;;;;;;;;;;;;;;;;;;;;
2425;;;;;;;;;;;;;;;;;;;;;
2437;;;;;;;;;;;;;;;;;;;;;
2449;;;;;;;;;;;;;;;;;;;;;
2461;;;;;;;;;;;;;;;;;;;;;
2473;;;;;;;;;;;;;;;;;;;;;
2485;;;;;;;;;;;;;;;;;;;;;
2497;;;;;;;;;;;;;;;;;;;;;
2509;;;;;;;;;;;;;;;;;;;;;
2521;;;;;;;;;;;;;;;;;;;;;
2533;;;;;;;;;;;;;;;;;;;;;
2545;;;;;;;;;;;;;;;;;;;;;
2557;;;;;;;;;;;;;;;;;;;;;
2569;;;;;;;;;;;;;;;;;;;;;
2581;;;;;;;;;;;;;;;;;;;;;
2593;;;;;;;;;;;;;;;;;;;;;
2605;;;;;;;;;;;;;;;;;;;;;
2617;;;;;;;;;;;;;;;;;;;;;
2629;;;;;;;;;;;;;;;;;;;;;
2641;;;;;;;;;;;;;;;;;;;;;
2653;;;;;;;;;;;;;;;;;;;;;
2665;;;;;;;;;;;;;;;;;;;;;
2677;;;;;;;;;;;;;;;;;;;;;
2689;;;;;;;;;;;;;;;;;;;;;
2701;;;;;;;;;;;;;;;;;;;;;
2713;;;;;;;;;;;;;;;;;;;;;
2725;;;;;;;;;;;;;;;;;;;;;
2737;;;;;;;;;;;;;;;;;;;;;
2749;;;;;;;;;;;;;;;;;;;;;
2761;;;;;;;;;;;;;;;;;;;;;
2773;;;;;;;;;;;;;;;;;;;;;
2785;;;;;;;;;;;;;;;;;;;;;
2797;;;;;;;;;;;;;;;;;;;;;
2809;;;;;;;;;;;;;;;;;;;;;
2821;;;;;;;;;;;;;;;;;;;;;
2833;;;;;;;;;;;;;;;;;;;;;
2845;;;;;;;;;;;;;;;;;;;;;
2857;;;;;;;;;;;;;;;;;;;;;
2869;;;;;;;;;;;;;;;;;;;;;
2881;;;;;;;;;;;;;;;;;;;;;
2893;;;;;;;;;;;;;;;;;;;;;
2905;;;;;;;;;;;;;;;;;;;;;
2917;;;;;;;;;;;;;;;;;;;;;
2929;;;;;;;;;;;;;;;;;;;;;
2941;;;;;;;;;;;;;;;;;;;;;
2953;;;;;;;;;;;;;;;;;;;;;
2965;;;;;;;;;;;;;;;;;;;;;
2977;;;;;;;;;;;;;;;;;;;;;
2989;;;;;;;;;;;;;;;;;;;;;
3001;;;;;;;;;;;;;;;;;;;;;
3013;;;;;;;;;;;;;;;;;;;;;
3025;;;;;;;;;;;;;;;;;;;;;
3037;;;;;;;;;;;;;;;;;;;;;
3049;;;;;;;;;;;;;;;;;;;;;
3061;;;;;;;;;;;;;;;;;;;;;
3073;;;;;;;;;;;;;;;;;;;;;
3085;;;;;;;;;;;;;;;;;;;;;
3097;;;;;;;;;;;;;;;;;;;;;
3109;;;;;;;;;;;;;;;;;;;;;
3121;;;;;;;;;;;;;;;;;;;;;
3133;;;;;;;;;;;;;;;;;;;;;
3145;;;;;;;;;;;;;;;;;;;;;
3157;;;;;;;;;;;;;;;;;;;;;
3169;;;;;;;;;;;;;;;;;;;;;
3181;;;;;;;;;;;;;;;;;;;;;
3193;;;;;;;;;;;;;;;;;;;;;
3205;;;;;;;;;;;;;;;;;;;;;
3217;;;;;;;;;;;;;;;;;;;;;
3229;;;;;;;;;;;;;;;;;;;;;
3241;;;;;;;;;;;;;;;;;;;;;
3253;;;;;;;;;;;;;;;;;;;;;
3265;;;;;;;;;;;;;;;;;;;;;
3277;;;;;;;;;;;;;;;;;;;;;
3289;;;;;;;;;;;;;;;;;;;;;
3301;;;;;;;;;;;;;;;;;;;;;
3313;;;;;;;;;;;;;;;;;;;;;
3325;;;;;;;;;;;;;;;;;;;;;

File: O2_0000rpm.txt
Index;Column 2 (V);Column 3 (V);Column 4 (V);Column 5 (V);Column 6 (V/s);Column 7 (V);Time (s);Potential applied (V);WE(1).Current (A);WE(1).Potential (V);Scan;Column 13;Column 14;Frequency (Hz);Z' (Ω);-Z'' (Ω);Z (Ω);-Phase (°);Time (s);Y' (Mho);-Y'' (Mho)
1;0;0.01;-1;-0.01;0.01;-0.00244;4455.67;-0.0146484;1.18134e-06;-0.0143707;3;3;3;100000;32.1182;2.86511;32.2458;5.09757;3832.42;0.0308891;0.00275546
11;;;;;;;4458.11;-0.0390625;4.33044e-07;-0.0389435;3;;;10000;30.7143;1.93263;30.775;3.60046;3857.83;0.0324297;0.00204057
21;;;;;;;4460.55;-0.0634766;-6.13403e-08;-0.0631714;3;;;1000;33.8432;7.2257;34.606;12.052;3878.46;0.0282598;0.00603362
31;;;;;;;4462.99;-0.0878906;-5.30701e-07;-0.0875244;3;;;100;46.3472;40.8464;61.7777;41.3902;3898.85;0.0121439;0.0107026
41;;;;;;;4465.43;-0.112305;-1.16943e-06;-0.111877;3;;;10;107.664;251.106;273.214;66.7923;3930.55;0.00144233;0.00336397
51;;;;;;;4467.87;-0.136719;-2.24884e-06;-0.136078;3;;;1;424.861;1810.31;1859.5;76.7923;3965.48;0.000122872;0.000523554
61;;;;;;;4470.31;-0.161133;-4.21448e-06;-0.160675;3;;;0.1;3065.26;13410.2;13756;77.1247;4030.44;1.61987e-05;7.08676e-05
71;;;;;;;4472.76;-0.185547;-7.69958e-06;-0.185089;3;;;;;;;;;;
81;;;;;;;4475.2;-0.209961;-1.36688e-05;-0.20932;3;;;;;;;;;;
91;;;;;;;4477.64;-0.234375;-2.35657e-05;-0.23349;3;;;;;;;;;;
101;;;;;;;4480.08;-0.258789;-3.9743e-05;-0.258118;3;;;;;;;;;;
111;;;;;;;4482.52;-0.283203;-6.54602e-05;-0.282471;3;;;;;;;;;;
121;;;;;;;4484.96;-0.307617;-0.000103668;-0.306885;3;;;;;;;;;;
131;;;;;;;4487.4;-0.332031;-0.000150391;-0.331146;3;;;;;;;;;;
141;;;;;;;4489.85;-0.356445;-0.000184662;-0.355408;3;;;;;;;;;;
151;;;;;;;4492.29;-0.380859;-0.000171967;-0.379822;3;;;;;;;;;;
161;;;;;;;4494.73;-0.405273;-0.000115662;-0.404297;3;;;;;;;;;;
171;;;;;;;4497.17;-0.4296875;-8.10242e-05;-0.428741;3;;;;;;;;;;
181;;;;;;;4499.61;-0.454102;-7.07703e-05;-0.453094;3;;;;;;;;;;
191;;;;;;;4502.05;-0.478516;-6.64368e-05;-0.477478;3;;;;;;;;;;
201;;;;;;;4504.49;-0.50293;-6.40564e-05;-0.501862;3;;;;;;;;;;
211;;;;;;;4506.94;-0.527344;-6.28662e-05;-0.526276;3;;;;;;;;;;
221;;;;;;;4509.38;-0.551758;-6.23779e-05;-0.550568;3;;;;;;;;;;
231;;;;;;;4511.82;-0.576172;-6.2439e-05;-0.574982;3;;;;;;;;;;
241;;;;;;;4514.26;-0.600586;-6.27441e-05;-0.599335;3;;;;;;;;;;
251;;;;;;;4516.7;-0.625;-6.32324e-05;-0.62381;3;;;;;;;;;;
261;;;;;;;4519.14;-0.649414;-6.37207e-05;-0.648224;3;;;;;;;;;;
271;;;;;;;4521.58;-0.673828;-6.41174e-05;-0.672546;3;;;;;;;;;;
281;;;;;;;4524.03;-0.698242;-6.40564e-05;-0.696991;3;;;;;;;;;;
291;;;;;;;4526.47;-0.722656;-6.34155e-05;-0.721405;3;;;;;;;;;;
301;;;;;;;4528.91;-0.74707;-6.22864e-05;-0.745789;3;;;;;;;;;;
311;;;;;;;4531.35;-0.771484;-6.08215e-05;-0.770874;3;;;;;;;;;;
321;;;;;;;4533.79;-0.795898;-5.93262e-05;-0.794983;3;;;;;;;;;;
331;;;;;;;4536.23;-0.8203125;-5.83496e-05;-0.820007;3;;;;;;;;;;
341;;;;;;;4538.67;-0.844727;-5.78613e-05;-0.844116;3;;;;;;;;;;
351;;;;;;;4541.12;-0.869141;-5.76782e-05;-0.868225;3;;;;;;;;;;
361;;;;;;;4543.56;-0.893555;-5.77087e-05;-0.892334;3;;;;;;;;;;
371;;;;;;;4546;-0.917969;-5.77087e-05;-0.917664;3;;;;;;;;;;
381;;;;;;;4548.44;-0.942383;-5.76782e-05;-0.942078;3;;;;;;;;;;
391;;;;;;;4550.88;-0.966797;-5.76782e-05;-0.965881;3;;;;;;;;;;
401;;;;;;;4553.32;-0.991211;-5.77698e-05;-0.98999;3;;;;;;;;;;
411;;;;;;;4555.76;-0.986328;-5.34973e-05;-0.985718;3;;;;;;;;;;
421;;;;;;;4558.21;-0.961914;-5.15137e-05;-0.960999;3;;;;;;;;;;
431;;;;;;;4560.65;-0.9375;-5.04456e-05;-0.93689;3;;;;;;;;;;
441;;;;;;;4563.09;-0.913086;-4.97437e-05;-0.912476;3;;;;;;;;;;
451;;;;;;;4565.53;-0.888672;-4.91028e-05;-0.888062;3;;;;;;;;;;
461;;;;;;;4567.97;-0.864258;-4.85718e-05;-0.863342;3;;;;;;;;;;
471;;;;;;;4570.41;-0.839844;-4.80774e-05;-0.839233;3;;;;;;;;;;
481;;;;;;;4572.85;-0.81543;-4.75983e-05;-0.814209;3;;;;;;;;;;
491;;;;;;;4575.3;-0.791016;-4.72015e-05;-0.789795;3;;;;;;;;;;
501;;;;;;;4577.74;-0.766602;-4.69299e-05;-0.765686;3;;;;;;;;;;
511;;;;;;;4580.18;-0.7421875;-4.67316e-05;-0.740936;3;;;;;;;;;;
521;;;;;;;4582.62;-0.717773;-4.65912e-05;-0.716492;3;;;;;;;;;;
531;;;;;;;4585.06;-0.693359;-4.65088e-05;-0.692047;3;;;;;;;;;;
541;;;;;;;4587.5;-0.668945;-4.64172e-05;-0.667664;3;;;;;;;;;;
551;;;;;;;4589.94;-0.644531;-4.63379e-05;-0.643341;3;;;;;;;;;;
561;;;;;;;4592.39;-0.620117;-4.62616e-05;-0.618958;3;;;;;;;;;;
571;;;;;;;4594.83;-0.595703;-4.61395e-05;-0.594574;3;;;;;;;;;;
581;;;;;;;4597.27;-0.571289;-4.59686e-05;-0.57016;3;;;;;;;;;;
591;;;;;;;4599.71;-0.546875;-4.56421e-05;-0.545807;3;;;;;;;;;;
601;;;;;;;4602.15;-0.522461;-4.52301e-05;-0.521393;3;;;;;;;;;;
611;;;;;;;4604.59;-0.498047;-4.47876e-05;-0.497101;3;;;;;;;;;;
621;;;;;;;4607.03;-0.473633;-4.42688e-05;-0.472595;3;;;;;;;;;;
631;;;;;;;4609.48;-0.449219;-4.36401e-05;-0.448273;3;;;;;;;;;;
641;;;;;;;4611.92;-0.424805;-4.27368e-05;-0.42395;3;;;;;;;;;;
651;;;;;;;4614.36;-0.400391;-4.12994e-05;-0.399536;3;;;;;;;;;;
661;;;;;;;4616.8;-0.375977;-3.89771e-05;-0.375153;3;;;;;;;;;;
671;;;;;;;4619.24;-0.3515625;-3.54584e-05;-0.3508;3;;;;;;;;;;
681;;;;;;;4621.68;-0.327148;-3.07922e-05;-0.326385;3;;;;;;;;;;
691;;;;;;;4624.12;-0.302734;-2.53906e-05;-0.302032;3;;;;;;;;;;
701;;;;;;;4626.57;-0.27832;-1.98608e-05;-0.277618;3;;;;;;;;;;
711;;;;;;;4629.01;-0.253906;-1.47156e-05;-0.253296;3;;;;;;;;;;
721;;;;;;;4631.45;-0.229492;-1.01868e-05;-0.228912;3;;;;;;;;;;
731;;;;;;;4633.89;-0.205078;-6.57043e-06;-0.204437;3;;;;;;;;;;
741;;;;;;;4636.33;-0.180664;-3.82385e-06;-0.180145;3;;;;;;;;;;
751;;;;;;;4638.77;-0.15625;-1.84509e-06;-0.155853;3;;;;;;;;;;
761;;;;;;;4641.21;-0.131836;-4.7699e-07;-0.131378;3;;;;;;;;;;
771;;;;;;;4643.65;-0.107422;5.02014e-07;-0.107208;3;;;;;;;;;;
781;;;;;;;4646.1;-0.0830078;1.20544e-06;-0.0828552;3;;;;;;;;;;
791;;;;;;;4648.54;-0.05859375;1.83899e-06;-0.0585327;3;;;;;;;;;;
801;;;;;;;4650.98;-0.0341797;2.38983e-06;-0.0338776;3;;;;;;;;;;
811;;;;;;;4653.42;-0.009765625;2.83875e-06;-0.00959473;3;;;;;;;;;;
821;;;;;;;4655.86;0.009765625;2.69836e-06;0.00997925;3;;;;;;;;;;
831;;;;;;;;;;;;;;;;;;;;;
841;;;;;;;;;;;;;;;;;;;;;
851;;;;;;;;;;;;;;;;;;;;;
861;;;;;;;;;;;;;;;;;;;;;
871;;;;;;;;;;;;;;;;;;;;;
881;;;;;;;;;;;;;;;;;;;;;
891;;;;;;;;;;;;;;;;;;;;;
901;;;;;;;;;;;;;;;;;;;;;
911;;;;;;;;;;;;;;;;;;;;;
921;;;;;;;;;;;;;;;;;;;;;
931;;;;;;;;;;;;;;;;;;;;;
941;;;;;;;;;;;;;;;;;;;;;
951;;;;;;;;;;;;;;;;;;;;;
961;;;;;;;;;;;;;;;;;;;;;
971;;;;;;;;;;;;;;;;;;;;;
981;;;;;;;;;;;;;;;;;;;;;
991;;;;;;;;;;;;;;;;;;;;;
1001;;;;;;;;;;;;;;;;;;;;;
1011;;;;;;;;;;;;;;;;;;;;;
1021;;;;;;;;;;;;;;;;;;;;;
1031;;;;;;;;;;;;;;;;;;;;;
1041;;;;;;;;;;;;;;;;;;;;;
1051;;;;;;;;;;;;;;;;;;;;;
1061;;;;;;;;;;;;;;;;;;;;;
1071;;;;;;;;;;;;;;;;;;;;;
1081;;;;;;;;;;;;;;;;;;;;;
1091;;;;;;;;;;;;;;;;;;;;;
1101;;;;;;;;;;;;;;;;;;;;;
1111;;;;;;;;;;;;;;;;;;;;;
1121;;;;;;;;;;;;;;;;;;;;;
1131;;;;;;;;;;;;;;;;;;;;;
1141;;;;;;;;;;;;;;;;;;;;;
1151;;;;;;;;;;;;;;;;;;;;;
1161;;;;;;;;;;;;;;;;;;;;;
1171;;;;;;;;;;;;;;;;;;;;;
1181;;;;;;;;;;;;;;;;;;;;;
1191;;;;;;;;;;;;;;;;;;;;;
1201;;;;;;;;;;;;;;;;;;;;;
1211;;;;;;;;;;;;;;;;;;;;;
1221;;;;;;;;;;;;;;;;;;;;;
1231;;;;;;;;;;;;;;;;;;;;;
1241;;;;;;;;;;;;;;;;;;;;;
1251;;;;;;;;;;;;;;;;;;;;;
1261;;;;;;;;;;;;;;;;;;;;;
1271;;;;;;;;;;;;;;;;;;;;;
1281;;;;;;;;;;;;;;;;;;;;;
1291;;;;;;;;;;;;;;;;;;;;;
1301;;;;;;;;;;;;;;;;;;;;;
1311;;;;;;;;;;;;;;;;;;;;;
1321;;;;;;;;;;;;;;;;;;;;;
1331;;;;;;;;;;;;;;;;;;;;;
1341;;;;;;;;;;;;;;;;;;;;;
1351;;;;;;;;;;;;;;;;;;;;;
1361;;;;;;;;;;;;;;;;;;;;;
1371;;;;;;;;;;;;;;;;;;;;;
1381;;;;;;;;;;;;;;;;;;;;;
1391;;;;;;;;;;;;;;;;;;;;;
1401;;;;;;;;;;;;;;;;;;;;;
1411;;;;;;;;;;;;;;;;;;;;;
1421;;;;;;;;;;;;;;;;;;;;;
1431;;;;;;;;;;;;;;;;;;;;;
1441;;;;;;;;;;;;;;;;;;;;;
1451;;;;;;;;;;;;;;;;;;;;;
1461;;;;;;;;;;;;;;;;;;;;;
1471;;;;;;;;;;;;;;;;;;;;;
1481;;;;;;;;;;;;;;;;;;;;;
1491;;;;;;;;;;;;;;;;;;;;;
1501;;;;;;;;;;;;;;;;;;;;;
1511;;;;;;;;;;;;;;;;;;;;;
1521;;;;;;;;;;;;;;;;;;;;;
1531;;;;;;;;;;;;;;;;;;;;;
1541;;;;;;;;;;;;;;;;;;;;;
1551;;;;;;;;;;;;;;;;;;;;;
1561;;;;;;;;;;;;;;;;;;;;;
1571;;;;;;;;;;;;;;;;;;;;;
1581;;;;;;;;;;;;;;;;;;;;;
1591;;;;;;;;;;;;;;;;;;;;;
1601;;;;;;;;;;;;;;;;;;;;;
1611;;;;;;;;;;;;;;;;;;;;;
1621;;;;;;;;;;;;;;;;;;;;;
1631;;;;;;;;;;;;;;;;;;;;;
1641;;;;;;;;;;;;;;;;;;;;;
1651;;;;;;;;;;;;;;;;;;;;;
1661;;;;;;;;;;;;;;;;;;;;;
1671;;;;;;;;;;;;;;;;;;;;;
1681;;;;;;;;;;;;;;;;;;;;;
1691;;;;;;;;;;;;;;;;;;;;;
1701;;;;;;;;;;;;;;;;;;;;;
1711;;;;;;;;;;;;;;;;;;;;;
1721;;;;;;;;;;;;;;;;;;;;;
1731;;;;;;;;;;;;;;;;;;;;;
1741;;;;;;;;;;;;;;;;;;;;;
1751;;;;;;;;;;;;;;;;;;;;;
1761;;;;;;;;;;;;;;;;;;;;;
1771;;;;;;;;;;;;;;;;;;;;;
1781;;;;;;;;;;;;;;;;;;;;;
1791;;;;;;;;;;;;;;;;;;;;;
1801;;;;;;;;;;;;;;;;;;;;;
1811;;;;;;;;;;;;;;;;;;;;;
1821;;;;;;;;;;;;;;;;;;;;;
1831;;;;;;;;;;;;;;;;;;;;;
1841;;;;;;;;;;;;;;;;;;;;;
1851;;;;;;;;;;;;;;;;;;;;;
1861;;;;;;;;;;;;;;;;;;;;;
1871;;;;;;;;;;;;;;;;;;;;;
1881;;;;;;;;;;;;;;;;;;;;;
1891;;;;;;;;;;;;;;;;;;;;;
1901;;;;;;;;;;;;;;;;;;;;;
1911;;;;;;;;;;;;;;;;;;;;;
1921;;;;;;;;;;;;;;;;;;;;;
1931;;;;;;;;;;;;;;;;;;;;;
1941;;;;;;;;;;;;;;;;;;;;;
1951;;;;;;;;;;;;;;;;;;;;;
1961;;;;;;;;;;;;;;;;;;;;;
1971;;;;;;;;;;;;;;;;;;;;;
1981;;;;;;;;;;;;;;;;;;;;;
1991;;;;;;;;;;;;;;;;;;;;;
2001;;;;;;;;;;;;;;;;;;;;;
2011;;;;;;;;;;;;;;;;;;;;;
2021;;;;;;;;;;;;;;;;;;;;;
2031;;;;;;;;;;;;;;;;;;;;;
2041;;;;;;;;;;;;;;;;;;;;;
2051;;;;;;;;;;;;;;;;;;;;;
2061;;;;;;;;;;;;;;;;;;;;;
2071;;;;;;;;;;;;;;;;;;;;;
2081;;;;;;;;;;;;;;;;;;;;;
2091;;;;;;;;;;;;;;;;;;;;;
2101;;;;;;;;;;;;;;;;;;;;;
2111;;;;;;;;;;;;;;;;;;;;;
2121;;;;;;;;;;;;;;;;;;;;;
2131;;;;;;;;;;;;;;;;;;;;;
2141;;;;;;;;;;;;;;;;;;;;;
2151;;;;;;;;;;;;;;;;;;;;;
2161;;;;;;;;;;;;;;;;;;;;;
2171;;;;;;;;;;;;;;;;;;;;;
2181;;;;;;;;;;;;;;;;;;;;;
2191;;;;;;;;;;;;;;;;;;;;;
2201;;;;;;;;;;;;;;;;;;;;;
2211;;;;;;;;;;;;;;;;;;;;;
2221;;;;;;;;;;;;;;;;;;;;;
2231;;;;;;;;;;;;;;;;;;;;;
2241;;;;;;;;;;;;;;;;;;;;;
2251;;;;;;;;;;;;;;;;;;;;;
2261;;;;;;;;;;;;;;;;;;;;;
2271;;;;;;;;;;;;;;;;;;;;;
2281;;;;;;;;;;;;;;;;;;;;;
2291;;;;;;;;;;;;;;;;;;;;;
2301;;;;;;;;;;;;;;;;;;;;;
2311;;;;;;;;;;;;;;;;;;;;;
2321;;;;;;;;;;;;;;;;;;;;;
2331;;;;;;;;;;;;;;;;;;;;;
2341;;;;;;;;;;;;;;;;;;;;;
2351;;;;;;;;;;;;;;;;;;;;;
2361;;;;;;;;;;;;;;;;;;;;;
2371;;;;;;;;;;;;;;;;;;;;;
2381;;;;;;;;;;;;;;;;;;;;;
2391;;;;;;;;;;;;;;;;;;;;;
2401;;;;;;;;;;;;;;;;;;;;;
2411;;;;;;;;;;;;;;;;;;;;;
2421;;;;;;;;;;;;;;;;;;;;;
2431;;;;;;;;;;;;;;;;;;;;;
2441;;;;;;;;;;;;;;;;;;;;;
2451;;;;;;;;;;;;;;;;;;;;;
2461;;;;;;;;;;;;;;;;;;;;;
2471;;;;;;;;;;;;;;;;;;;;;
2481;;;;;;;;;;;;;;;;;;;;;
2491;;;;;;;;;;;;;;;;;;;;;
2495;;;;;;;;;;;;;;;;;;;;;