Folder: electrochemical_ORR_procesing_autolab/carbon_superP (part 7)

File: O2_2000rpm.txt
Index;Column 2 (V);Column 3 (V);Column 4 (V);Column 5 (V);Column 6 (V/s);Column 7 (V);Time (s);Potential applied (V);WE(1).Current (A);WE(1).Potential (V);Scan;Column 13 (RPM);ω (rad/s)
1;0;0.01;-1;-0.01;0.01;-0.00244;18417.8;-0.0146484;6.00586e-07;-0.0143616;3;2000;209.44
10;;;;;;;18420;-0.0366211;-4.11987e-08;-0.0362885;3;;
19;;;;;;;18422.2;-0.05859375;-6.6803e-07;-0.0583191;3;;
28;;;;;;;18424.4;-0.0805664;-1.41754e-06;-0.0801086;3;;
37;;;;;;;18426.6;-0.102539;-2.61139e-06;-0.101898;3;;
46;;;;;;;18428.8;-0.124512;-4.67834e-06;-0.124054;3;;
55;;;;;;;18431;-0.146484;-8.36487e-06;-0.145996;3;;
64;;;;;;;18433.2;-0.168457;-1.48346e-05;-0.167908;3;;
73;;;;;;;18435.4;-0.19043;-2.61627e-05;-0.189545;3;;
82;;;;;;;18437.6;-0.212402;-4.58069e-05;-0.211823;3;;
91;;;;;;;18439.8;-0.234375;-8.01086e-05;-0.233734;3;;
100;;;;;;;18442;-0.256348;-0.000139282;-0.255585;3;;
109;;;;;;;18444.2;-0.27832;-0.000234772;-0.277374;3;;
118;;;;;;;18446.4;-0.300293;-0.000371552;-0.299591;3;;
127;;;;;;;18448.6;-0.322266;-0.000541992;-0.321503;3;;
136;;;;;;;18450.8;-0.344238;-0.000726624;-0.343384;3;;
145;;;;;;;18453;-0.366211;-0.000899353;-0.365326;3;;
154;;;;;;;18455.2;-0.388184;-0.00104187;-0.387238;3;;
163;;;;;;;18457.4;-0.410156;-0.00114868;-0.409119;3;;
172;;;;;;;18459.6;-0.432129;-0.00122375;-0.431061;3;;
181;;;;;;;18461.8;-0.454102;-0.00127747;-0.453033;3;;
190;;;;;;;18464;-0.476074;-0.00131653;-0.474945;3;;
199;;;;;;;18466.2;-0.498047;-0.00134552;-0.496857;3;;
208;;;;;;;18468.4;-0.52002;-0.00136719;-0.518829;3;;
217;;;;;;;18470.6;-0.541992;-0.00138275;-0.540741;3;;
226;;;;;;;18472.8;-0.563965;-0.00139526;-0.562714;3;;
235;;;;;;;18475;-0.5859375;-0.00140778;-0.584656;3;;
244;;;;;;;18477.2;-0.60791;-0.00141296;-0.606567;3;;
253;;;;;;;18479.4;-0.629883;-0.00141632;-0.62854;3;;
262;;;;;;;18481.6;-0.651855;-0.00141815;-0.650543;3;;
271;;;;;;;18483.8;-0.673828;-0.00141296;-0.672424;3;;
280;;;;;;;18486;-0.695801;-0.00140747;-0.694397;3;;
289;;;;;;;18488.2;-0.717773;-0.00140259;-0.716339;3;;
298;;;;;;;18490.4;-0.739746;-0.00139618;-0.738373;3;;
307;;;;;;;18492.6;-0.761719;-0.0013858;-0.760803;3;;
316;;;;;;;18494.7;-0.783691;-0.00138;-0.782776;3;;
325;;;;;;;18496.9;-0.805664;-0.0013736;-0.805054;3;;
334;;;;;;;18499.1;-0.827637;-0.00137177;-0.827637;3;;
343;;;;;;;18501.3;-0.849609;-0.00137268;-0.848694;3;;
352;;;;;;;18503.5;-0.871582;-0.0013736;-0.870972;3;;
361;;;;;;;18505.7;-0.893555;-0.00138153;-0.892944;3;;
370;;;;;;;18507.9;-0.915527;-0.0013858;-0.915222;3;;
379;;;;;;;18510.1;-0.9375;-0.00139099;-0.937195;3;;
388;;;;;;;18512.3;-0.959473;-0.00139557;-0.958862;3;;
397;;;;;;;18514.5;-0.981445;-0.00139954;-0.98053;3;;
406;;;;;;;18516.7;-0.998535;-0.00139832;-0.997925;3;;
415;;;;;;;18518.9;-0.9765625;-0.00136627;-0.975647;3;;
424;;;;;;;18521.1;-0.95459;-0.00134644;-0.953979;3;;
433;;;;;;;18523.3;-0.932617;-0.00133057;-0.931396;3;;
442;;;;;;;18525.5;-0.910645;-0.0013208;-0.909424;3;;
451;;;;;;;18527.7;-0.888672;-0.00131317;-0.888367;3;;
460;;;;;;;18529.9;-0.866699;-0.00130737;-0.866089;3;;
469;;;;;;;18532.1;-0.844727;-0.00130463;-0.844421;3;;
478;;;;;;;18534.3;-0.822754;-0.00131317;-0.821838;3;;
487;;;;;;;18536.5;-0.800781;-0.00131805;-0.800171;3;;
496;;;;;;;18538.7;-0.778809;-0.00133118;-0.777893;3;;
505;;;;;;;18540.9;-0.756836;-0.00134644;-0.75592;3;;
514;;;;;;;18543.1;-0.734863;-0.00136047;-0.733459;3;;
523;;;;;;;18545.3;-0.712891;-0.00137482;-0.711517;3;;
532;;;;;;;18547.5;-0.690918;-0.00138763;-0.689514;3;;
541;;;;;;;18549.7;-0.668945;-0.00139313;-0.667572;3;;
550;;;;;;;18551.9;-0.646973;-0.00139618;-0.645599;3;;
559;;;;;;;18554.1;-0.625;-0.00139313;-0.623657;3;;
568;;;;;;;18556.3;-0.603027;-0.00139038;-0.601685;3;;
577;;;;;;;18558.5;-0.581055;-0.00138245;-0.579742;3;;
586;;;;;;;18560.7;-0.559082;-0.00137268;-0.557831;3;;
595;;;;;;;18562.9;-0.537109;-0.00136017;-0.535858;3;;
604;;;;;;;18565.1;-0.515137;-0.00134796;-0.513916;3;;
613;;;;;;;18567.3;-0.493164;-0.00132721;-0.491974;3;;
622;;;;;;;18569.5;-0.471191;-0.00129608;-0.470093;3;;
631;;;;;;;18571.7;-0.449219;-0.00125488;-0.448181;3;;
640;;;;;;;18573.9;-0.427246;-0.00119537;-0.426239;3;;
649;;;;;;;18576;-0.405273;-0.00111084;-0.404327;3;;
658;;;;;;;18578.2;-0.383301;-0.00100037;-0.382355;3;;
667;;;;;;;18580.4;-0.361328;-0.000863647;-0.360474;3;;
676;;;;;;;18582.6;-0.339355;-0.000707703;-0.338531;3;;
685;;;;;;;18584.8;-0.317383;-0.000546875;-0.31662;3;;
694;;;;;;;18587;-0.29541;-0.000395996;-0.294678;3;;
703;;;;;;;18589.2;-0.2734375;-0.000267334;-0.272797;3;;
712;;;;;;;18591.4;-0.251465;-0.000169373;-0.250885;3;;
721;;;;;;;18593.6;-0.229492;-0.000101959;-0.228882;3;;
730;;;;;;;18595.8;-0.20752;-5.88989e-05;-0.206879;3;;
739;;;;;;;18598;-0.185547;-3.29132e-05;-0.185059;3;;
748;;;;;;;18600.2;-0.163574;-1.77032e-05;-0.163116;3;;
757;;;;;;;18602.4;-0.141602;-9.04236e-06;-0.141144;3;;
766;;;;;;;18604.6;-0.119629;-4.18091e-06;-0.119232;3;;
775;;;;;;;18606.8;-0.09765625;-1.50421e-06;-0.0973206;3;;
784;;;;;;;18609;-0.0756836;-4.27246e-09;-0.0752258;3;;
793;;;;;;;18611.2;-0.0537109;9.15222e-07;-0.0535583;3;;
802;;;;;;;18613.4;-0.0317383;1.54388e-06;-0.0314026;3;;
811;;;;;;;18615.6;-0.009765625;2.02393e-06;-0.00945129;3;;
820;;;;;;;18617.8;0.012207;2.3819e-06;0.0124359;3;;
829;;;;;;;18620;-0.009765625;8.01392e-07;-0.00942078;3;;
838;;;;;;;;;;;;;
847;;;;;;;;;;;;;
856;;;;;;;;;;;;;
865;;;;;;;;;;;;;
874;;;;;;;;;;;;;
883;;;;;;;;;;;;;
892;;;;;;;;;;;;;
901;;;;;;;;;;;;;
910;;;;;;;;;;;;;
919;;;;;;;;;;;;;
928;;;;;;;;;;;;;
937;;;;;;;;;;;;;
946;;;;;;;;;;;;;
955;;;;;;;;;;;;;
964;;;;;;;;;;;;;
973;;;;;;;;;;;;;
982;;;;;;;;;;;;;
991;;;;;;;;;;;;;
1000;;;;;;;;;;;;;
1009;;;;;;;;;;;;;
1018;;;;;;;;;;;;;
1027;;;;;;;;;;;;;
1036;;;;;;;;;;;;;
1045;;;;;;;;;;;;;
1054;;;;;;;;;;;;;
1063;;;;;;;;;;;;;
1072;;;;;;;;;;;;;
1081;;;;;;;;;;;;;
1090;;;;;;;;;;;;;
1099;;;;;;;;;;;;;
1108;;;;;;;;;;;;;
1117;;;;;;;;;;;;;
1126;;;;;;;;;;;;;
1135;;;;;;;;;;;;;
1144;;;;;;;;;;;;;
1153;;;;;;;;;;;;;
1162;;;;;;;;;;;;;
1171;;;;;;;;;;;;;
1180;;;;;;;;;;;;;
1189;;;;;;;;;;;;;
1198;;;;;;;;;;;;;
1207;;;;;;;;;;;;;
1216;;;;;;;;;;;;;
1225;;;;;;;;;;;;;
1234;;;;;;;;;;;;;
1243;;;;;;;;;;;;;
1252;;;;;;;;;;;;;
1261;;;;;;;;;;;;;
1270;;;;;;;;;;;;;
1279;;;;;;;;;;;;;
1288;;;;;;;;;;;;;
1297;;;;;;;;;;;;;
1306;;;;;;;;;;;;;
1315;;;;;;;;;;;;;
1324;;;;;;;;;;;;;
1333;;;;;;;;;;;;;
1342;;;;;;;;;;;;;
1351;;;;;;;;;;;;;
1360;;;;;;;;;;;;;
1369;;;;;;;;;;;;;
1378;;;;;;;;;;;;;
1387;;;;;;;;;;;;;
1396;;;;;;;;;;;;;
1405;;;;;;;;;;;;;
1414;;;;;;;;;;;;;
1423;;;;;;;;;;;;;
1432;;;;;;;;;;;;;
1441;;;;;;;;;;;;;
1450;;;;;;;;;;;;;
1459;;;;;;;;;;;;;
1468;;;;;;;;;;;;;
1477;;;;;;;;;;;;;
1486;;;;;;;;;;;;;
1495;;;;;;;;;;;;;
1504;;;;;;;;;;;;;
1513;;;;;;;;;;;;;
1522;;;;;;;;;;;;;
1531;;;;;;;;;;;;;
1540;;;;;;;;;;;;;
1549;;;;;;;;;;;;;
1558;;;;;;;;;;;;;
1567;;;;;;;;;;;;;
1576;;;;;;;;;;;;;
1585;;;;;;;;;;;;;
1594;;;;;;;;;;;;;
1603;;;;;;;;;;;;;
1612;;;;;;;;;;;;;
1621;;;;;;;;;;;;;
1630;;;;;;;;;;;;;
1639;;;;;;;;;;;;;
1648;;;;;;;;;;;;;
1657;;;;;;;;;;;;;
1666;;;;;;;;;;;;;
1675;;;;;;;;;;;;;
1684;;;;;;;;;;;;;
1693;;;;;;;;;;;;;
1702;;;;;;;;;;;;;
1711;;;;;;;;;;;;;
1720;;;;;;;;;;;;;
1729;;;;;;;;;;;;;
1738;;;;;;;;;;;;;
1747;;;;;;;;;;;;;
1756;;;;;;;;;;;;;
1765;;;;;;;;;;;;;
1774;;;;;;;;;;;;;
1783;;;;;;;;;;;;;
1792;;;;;;;;;;;;;
1801;;;;;;;;;;;;;
1810;;;;;;;;;;;;;
1819;;;;;;;;;;;;;
1828;;;;;;;;;;;;;
1837;;;;;;;;;;;;;
1846;;;;;;;;;;;;;
1855;;;;;;;;;;;;;
1864;;;;;;;;;;;;;
1873;;;;;;;;;;;;;
1882;;;;;;;;;;;;;
1891;;;;;;;;;;;;;
1900;;;;;;;;;;;;;
1909;;;;;;;;;;;;;
1918;;;;;;;;;;;;;
1927;;;;;;;;;;;;;
1936;;;;;;;;;;;;;
1945;;;;;;;;;;;;;
1954;;;;;;;;;;;;;
1963;;;;;;;;;;;;;
1972;;;;;;;;;;;;;
1981;;;;;;;;;;;;;
1990;;;;;;;;;;;;;
1999;;;;;;;;;;;;;
2008;;;;;;;;;;;;;
2017;;;;;;;;;;;;;
2026;;;;;;;;;;;;;
2035;;;;;;;;;;;;;
2044;;;;;;;;;;;;;
2053;;;;;;;;;;;;;
2062;;;;;;;;;;;;;
2071;;;;;;;;;;;;;
2080;;;;;;;;;;;;;
2089;;;;;;;;;;;;;
2098;;;;;;;;;;;;;
2107;;;;;;;;;;;;;
2116;;;;;;;;;;;;;
2125;;;;;;;;;;;;;
2134;;;;;;;;;;;;;
2143;;;;;;;;;;;;;
2152;;;;;;;;;;;;;
2161;;;;;;;;;;;;;
2170;;;;;;;;;;;;;
2179;;;;;;;;;;;;;
2188;;;;;;;;;;;;;
2197;;;;;;;;;;;;;
2206;;;;;;;;;;;;;
2215;;;;;;;;;;;;;
2224;;;;;;;;;;;;;
2233;;;;;;;;;;;;;
2242;;;;;;;;;;;;;
2251;;;;;;;;;;;;;
2260;;;;;;;;;;;;;
2269;;;;;;;;;;;;;
2278;;;;;;;;;;;;;
2287;;;;;;;;;;;;;
2296;;;;;;;;;;;;;
2305;;;;;;;;;;;;;
2314;;;;;;;;;;;;;
2323;;;;;;;;;;;;;
2332;;;;;;;;;;;;;
2341;;;;;;;;;;;;;
2350;;;;;;;;;;;;;
2359;;;;;;;;;;;;;
2368;;;;;;;;;;;;;
2377;;;;;;;;;;;;;
2386;;;;;;;;;;;;;
2395;;;;;;;;;;;;;
2404;;;;;;;;;;;;;
2413;;;;;;;;;;;;;
2422;;;;;;;;;;;;;
2431;;;;;;;;;;;;;
2440;;;;;;;;;;;;;
2449;;;;;;;;;;;;;
2458;;;;;;;;;;;;;
2467;;;;;;;;;;;;;
2476;;;;;;;;;;;;;
2485;;;;;;;;;;;;;
2494;;;;;;;;;;;;;
2495;;;;;;;;;;;;;