Folder: electrochemical_ORR_procesing_autolab/carbon_superP (part 6)

File: O2_1600rpm.txt
Index;Column 2 (V);Column 3 (V);Column 4 (V);Column 5 (V);Column 6 (V/s);Column 7 (V);Time (s);Potential applied (V);WE(1).Current (A);WE(1).Potential (V);Scan;Column 13 (RPM);ω (rad/s);Frequency (Hz);Z' (Ω);-Z'' (Ω);Z (Ω);-Phase (°);Time (s);Y' (Mho);-Y'' (Mho)
1;0;0.01;-1;-0.01;0.01;-0.00244;15867.2;-0.0146484;5.70679e-07;-0.0144653;3;1600;167.552;100000;31.4539;2.8795;31.5854;5.23066;15250.4;0.0315283;0.00288632
11;;;;;;;15869.7;-0.0390625;-6.98853e-08;-0.0387695;3;;;10000;29.375;0.8159;29.3863;1.591;15270.4;0.0340163;0.000944814
21;;;;;;;15872.1;-0.0634766;-7.1106e-07;-0.0632324;3;;;1000;30.5455;2.18497;30.6236;4.09149;15288.4;0.0325714;0.00232988
31;;;;;;;15874.6;-0.0878906;-1.60706e-06;-0.0874939;3;;;100;34.2224;8.12318;35.1733;13.3529;15306.8;0.0276621;0.006566
41;;;;;;;15877;-0.112305;-3.26599e-06;-0.111938;3;;;10;37.8795;57.961;69.2412;56.834;15345.6;0.00790089;0.0120895
51;;;;;;;15879.5;-0.136719;-6.3446e-06;-0.136261;3;;;1;58.8532;547.443;550.597;83.8639;15379.8;0.000194134;0.0018058
61;;;;;;;15881.9;-0.161133;-1.2146e-05;-0.160583;3;;;0.1;411.736;5068.97;5085.67;85.3563;15442.2;1.59192e-05;0.000195985
71;;;;;;;15884.3;-0.185547;-2.29553e-05;-0.184875;3;;;;;;;;;;
81;;;;;;;15886.8;-0.209961;-4.30176e-05;-0.209351;3;;;;;;;;;;
91;;;;;;;15889.2;-0.234375;-8.04749e-05;-0.233734;3;;;;;;;;;;
101;;;;;;;15891.7;-0.258789;-0.000148895;-0.258026;3;;;;;;;;;;
111;;;;;;;15894.1;-0.283203;-0.00026358;-0.282196;3;;;;;;;;;;
121;;;;;;;15896.5;-0.307617;-0.000428345;-0.306915;3;;;;;;;;;;
131;;;;;;;15899;-0.332031;-0.000623779;-0.331268;3;;;;;;;;;;
141;;;;;;;15901.4;-0.356445;-0.000814514;-0.35556;3;;;;;;;;;;
151;;;;;;;15903.9;-0.380859;-0.000966492;-0.379944;3;;;;;;;;;;
161;;;;;;;15906.3;-0.405273;-0.0010675;-0.404327;3;;;;;;;;;;
171;;;;;;;15908.8;-0.4296875;-0.00113129;-0.428711;3;;;;;;;;;;
181;;;;;;;15911.2;-0.454102;-0.00117432;-0.453094;3;;;;;;;;;;
191;;;;;;;15913.6;-0.478516;-0.00120728;-0.477417;3;;;;;;;;;;
201;;;;;;;15916.1;-0.50293;-0.00122955;-0.501831;3;;;;;;;;;;
211;;;;;;;15918.5;-0.527344;-0.00124634;-0.526093;3;;;;;;;;;;
221;;;;;;;15921;-0.551758;-0.00125916;-0.550507;3;;;;;;;;;;
231;;;;;;;15923.4;-0.576172;-0.00126648;-0.57486;3;;;;;;;;;;
241;;;;;;;15925.8;-0.600586;-0.00127167;-0.599213;3;;;;;;;;;;
251;;;;;;;15928.3;-0.625;-0.00127228;-0.623688;3;;;;;;;;;;
261;;;;;;;15930.7;-0.649414;-0.00127136;-0.648071;3;;;;;;;;;;
271;;;;;;;15933.2;-0.673828;-0.00126709;-0.672485;3;;;;;;;;;;
281;;;;;;;15935.6;-0.698242;-0.00126099;-0.69696;3;;;;;;;;;;
291;;;;;;;15938;-0.722656;-0.00125305;-0.721313;3;;;;;;;;;;
301;;;;;;;15940.5;-0.74707;-0.00124603;-0.745728;3;;;;;;;;;;
311;;;;;;;15942.9;-0.771484;-0.0012384;-0.771179;3;;;;;;;;;;
321;;;;;;;15945.4;-0.795898;-0.00123047;-0.795288;3;;;;;;;;;;
331;;;;;;;15947.8;-0.8203125;-0.00122925;-0.819397;3;;;;;;;;;;
341;;;;;;;15950.3;-0.844727;-0.00122864;-0.844116;3;;;;;;;;;;
351;;;;;;;15952.7;-0.869141;-0.00123383;-0.86792;3;;;;;;;;;;
361;;;;;;;15955.1;-0.893555;-0.00124176;-0.89325;3;;;;;;;;;;
371;;;;;;;15957.6;-0.917969;-0.00124695;-0.917664;3;;;;;;;;;;
381;;;;;;;15960;-0.942383;-0.00125214;-0.942078;3;;;;;;;;;;
391;;;;;;;15962.5;-0.966797;-0.00125549;-0.966187;3;;;;;;;;;;
401;;;;;;;15964.9;-0.991211;-0.00125916;-0.990906;3;;;;;;;;;;
411;;;;;;;15967.3;-0.986328;-0.00123779;-0.985413;3;;;;;;;;;;
421;;;;;;;15969.8;-0.961914;-0.00121155;-0.961304;3;;;;;;;;;;
431;;;;;;;15972.2;-0.9375;-0.00119537;-0.93689;3;;;;;;;;;;
441;;;;;;;15974.7;-0.913086;-0.00118408;-0.912781;3;;;;;;;;;;
451;;;;;;;15977.1;-0.888672;-0.00117432;-0.888062;3;;;;;;;;;;
461;;;;;;;15979.6;-0.864258;-0.00116913;-0.863647;3;;;;;;;;;;
471;;;;;;;15982;-0.839844;-0.00116882;-0.838928;3;;;;;;;;;;
481;;;;;;;15984.4;-0.81543;-0.00117249;-0.814514;3;;;;;;;;;;
491;;;;;;;15986.9;-0.791016;-0.00118256;-0.790405;3;;;;;;;;;;
501;;;;;;;15989.3;-0.766602;-0.00119537;-0.765381;3;;;;;;;;;;
511;;;;;;;15991.8;-0.7421875;-0.00121185;-0.740845;3;;;;;;;;;;
521;;;;;;;15994.2;-0.717773;-0.00122589;-0.7164;3;;;;;;;;;;
531;;;;;;;15996.6;-0.693359;-0.00124084;-0.691986;3;;;;;;;;;;
541;;;;;;;15999.1;-0.668945;-0.00125031;-0.667572;3;;;;;;;;;;
551;;;;;;;16001.5;-0.644531;-0.00125366;-0.643219;3;;;;;;;;;;
561;;;;;;;16004;-0.620117;-0.00125427;-0.618774;3;;;;;;;;;;
571;;;;;;;16006.4;-0.595703;-0.00124847;-0.594421;3;;;;;;;;;;
581;;;;;;;16008.8;-0.571289;-0.00124237;-0.570038;3;;;;;;;;;;
591;;;;;;;16011.3;-0.546875;-0.00123291;-0.545685;3;;;;;;;;;;
601;;;;;;;16013.7;-0.522461;-0.00122284;-0.521332;3;;;;;;;;;;
611;;;;;;;16016.2;-0.498047;-0.00120758;-0.496948;3;;;;;;;;;;
621;;;;;;;16018.6;-0.473633;-0.00118378;-0.472565;3;;;;;;;;;;
631;;;;;;;16021.1;-0.449219;-0.00114868;-0.448181;3;;;;;;;;;;
641;;;;;;;16023.5;-0.424805;-0.00109558;-0.423828;3;;;;;;;;;;
651;;;;;;;16025.9;-0.400391;-0.001015625;-0.399445;3;;;;;;;;;;
661;;;;;;;16028.4;-0.375977;-0.000904846;-0.375031;3;;;;;;;;;;
671;;;;;;;16030.8;-0.3515625;-0.000762024;-0.35083;3;;;;;;;;;;
681;;;;;;;16033.3;-0.327148;-0.00059906;-0.326416;3;;;;;;;;;;
691;;;;;;;16035.7;-0.302734;-0.000434753;-0.302063;3;;;;;;;;;;
701;;;;;;;16038.1;-0.27832;-0.000289703;-0.277588;3;;;;;;;;;;
711;;;;;;;16040.6;-0.253906;-0.000178131;-0.253326;3;;;;;;;;;;
721;;;;;;;16043;-0.229492;-0.000102325;-0.228912;3;;;;;;;;;;
731;;;;;;;16045.5;-0.205078;-5.57861e-05;-0.204498;3;;;;;;;;;;
741;;;;;;;16047.9;-0.180664;-2.9126e-05;-0.180115;3;;;;;;;;;;
751;;;;;;;16050.4;-0.15625;-1.43951e-05;-0.155884;3;;;;;;;;;;
761;;;;;;;16052.8;-0.131836;-6.54297e-06;-0.131378;3;;;;;;;;;;
771;;;;;;;16055.2;-0.107422;-2.42981e-06;-0.107056;3;;;;;;;;;;
781;;;;;;;16057.7;-0.0830078;-2.79541e-07;-0.0827332;3;;;;;;;;;;
791;;;;;;;16060.1;-0.05859375;8.79517e-07;-0.0584717;3;;;;;;;;;;
801;;;;;;;16062.6;-0.0341797;1.54358e-06;-0.0338196;3;;;;;;;;;;
811;;;;;;;16065;-0.009765625;1.97083e-06;-0.00960388;3;;;;;;;;;;
821;;;;;;;16067.4;0.009765625;1.86401e-06;0.010025;3;;;;;;;;;;
831;;;;;;;;;;;;;;;;;;;;;
841;;;;;;;;;;;;;;;;;;;;;
851;;;;;;;;;;;;;;;;;;;;;
861;;;;;;;;;;;;;;;;;;;;;
871;;;;;;;;;;;;;;;;;;;;;
881;;;;;;;;;;;;;;;;;;;;;
891;;;;;;;;;;;;;;;;;;;;;
901;;;;;;;;;;;;;;;;;;;;;
911;;;;;;;;;;;;;;;;;;;;;
921;;;;;;;;;;;;;;;;;;;;;
931;;;;;;;;;;;;;;;;;;;;;
941;;;;;;;;;;;;;;;;;;;;;
951;;;;;;;;;;;;;;;;;;;;;
961;;;;;;;;;;;;;;;;;;;;;
971;;;;;;;;;;;;;;;;;;;;;
981;;;;;;;;;;;;;;;;;;;;;
991;;;;;;;;;;;;;;;;;;;;;
1001;;;;;;;;;;;;;;;;;;;;;
1011;;;;;;;;;;;;;;;;;;;;;
1021;;;;;;;;;;;;;;;;;;;;;
1031;;;;;;;;;;;;;;;;;;;;;
1041;;;;;;;;;;;;;;;;;;;;;
1051;;;;;;;;;;;;;;;;;;;;;
1061;;;;;;;;;;;;;;;;;;;;;
1071;;;;;;;;;;;;;;;;;;;;;
1081;;;;;;;;;;;;;;;;;;;;;
1091;;;;;;;;;;;;;;;;;;;;;
1101;;;;;;;;;;;;;;;;;;;;;
1111;;;;;;;;;;;;;;;;;;;;;
1121;;;;;;;;;;;;;;;;;;;;;
1131;;;;;;;;;;;;;;;;;;;;;
1141;;;;;;;;;;;;;;;;;;;;;
1151;;;;;;;;;;;;;;;;;;;;;
1161;;;;;;;;;;;;;;;;;;;;;
1171;;;;;;;;;;;;;;;;;;;;;
1181;;;;;;;;;;;;;;;;;;;;;
1191;;;;;;;;;;;;;;;;;;;;;
1201;;;;;;;;;;;;;;;;;;;;;
1211;;;;;;;;;;;;;;;;;;;;;
1221;;;;;;;;;;;;;;;;;;;;;
1231;;;;;;;;;;;;;;;;;;;;;
1241;;;;;;;;;;;;;;;;;;;;;
1251;;;;;;;;;;;;;;;;;;;;;
1261;;;;;;;;;;;;;;;;;;;;;
1271;;;;;;;;;;;;;;;;;;;;;
1281;;;;;;;;;;;;;;;;;;;;;
1291;;;;;;;;;;;;;;;;;;;;;
1301;;;;;;;;;;;;;;;;;;;;;
1311;;;;;;;;;;;;;;;;;;;;;
1321;;;;;;;;;;;;;;;;;;;;;
1331;;;;;;;;;;;;;;;;;;;;;
1341;;;;;;;;;;;;;;;;;;;;;
1351;;;;;;;;;;;;;;;;;;;;;
1361;;;;;;;;;;;;;;;;;;;;;
1371;;;;;;;;;;;;;;;;;;;;;
1381;;;;;;;;;;;;;;;;;;;;;
1391;;;;;;;;;;;;;;;;;;;;;
1401;;;;;;;;;;;;;;;;;;;;;
1411;;;;;;;;;;;;;;;;;;;;;
1421;;;;;;;;;;;;;;;;;;;;;
1431;;;;;;;;;;;;;;;;;;;;;
1441;;;;;;;;;;;;;;;;;;;;;
1451;;;;;;;;;;;;;;;;;;;;;
1461;;;;;;;;;;;;;;;;;;;;;
1471;;;;;;;;;;;;;;;;;;;;;
1481;;;;;;;;;;;;;;;;;;;;;
1491;;;;;;;;;;;;;;;;;;;;;
1501;;;;;;;;;;;;;;;;;;;;;
1511;;;;;;;;;;;;;;;;;;;;;
1521;;;;;;;;;;;;;;;;;;;;;
1531;;;;;;;;;;;;;;;;;;;;;
1541;;;;;;;;;;;;;;;;;;;;;
1551;;;;;;;;;;;;;;;;;;;;;
1561;;;;;;;;;;;;;;;;;;;;;
1571;;;;;;;;;;;;;;;;;;;;;
1581;;;;;;;;;;;;;;;;;;;;;
1591;;;;;;;;;;;;;;;;;;;;;
1601;;;;;;;;;;;;;;;;;;;;;
1611;;;;;;;;;;;;;;;;;;;;;
1621;;;;;;;;;;;;;;;;;;;;;
1631;;;;;;;;;;;;;;;;;;;;;
1641;;;;;;;;;;;;;;;;;;;;;
1651;;;;;;;;;;;;;;;;;;;;;
1661;;;;;;;;;;;;;;;;;;;;;
1671;;;;;;;;;;;;;;;;;;;;;
1681;;;;;;;;;;;;;;;;;;;;;
1691;;;;;;;;;;;;;;;;;;;;;
1701;;;;;;;;;;;;;;;;;;;;;
1711;;;;;;;;;;;;;;;;;;;;;
1721;;;;;;;;;;;;;;;;;;;;;
1731;;;;;;;;;;;;;;;;;;;;;
1741;;;;;;;;;;;;;;;;;;;;;
1751;;;;;;;;;;;;;;;;;;;;;
1761;;;;;;;;;;;;;;;;;;;;;
1771;;;;;;;;;;;;;;;;;;;;;
1781;;;;;;;;;;;;;;;;;;;;;
1791;;;;;;;;;;;;;;;;;;;;;
1801;;;;;;;;;;;;;;;;;;;;;
1811;;;;;;;;;;;;;;;;;;;;;
1821;;;;;;;;;;;;;;;;;;;;;
1831;;;;;;;;;;;;;;;;;;;;;
1841;;;;;;;;;;;;;;;;;;;;;
1851;;;;;;;;;;;;;;;;;;;;;
1861;;;;;;;;;;;;;;;;;;;;;
1871;;;;;;;;;;;;;;;;;;;;;
1881;;;;;;;;;;;;;;;;;;;;;
1891;;;;;;;;;;;;;;;;;;;;;
1901;;;;;;;;;;;;;;;;;;;;;
1911;;;;;;;;;;;;;;;;;;;;;
1921;;;;;;;;;;;;;;;;;;;;;
1931;;;;;;;;;;;;;;;;;;;;;
1941;;;;;;;;;;;;;;;;;;;;;
1951;;;;;;;;;;;;;;;;;;;;;
1961;;;;;;;;;;;;;;;;;;;;;
1971;;;;;;;;;;;;;;;;;;;;;
1981;;;;;;;;;;;;;;;;;;;;;
1991;;;;;;;;;;;;;;;;;;;;;
2001;;;;;;;;;;;;;;;;;;;;;
2011;;;;;;;;;;;;;;;;;;;;;
2021;;;;;;;;;;;;;;;;;;;;;
2031;;;;;;;;;;;;;;;;;;;;;
2041;;;;;;;;;;;;;;;;;;;;;
2051;;;;;;;;;;;;;;;;;;;;;
2061;;;;;;;;;;;;;;;;;;;;;
2071;;;;;;;;;;;;;;;;;;;;;
2081;;;;;;;;;;;;;;;;;;;;;
2091;;;;;;;;;;;;;;;;;;;;;
2101;;;;;;;;;;;;;;;;;;;;;
2111;;;;;;;;;;;;;;;;;;;;;
2121;;;;;;;;;;;;;;;;;;;;;
2131;;;;;;;;;;;;;;;;;;;;;
2141;;;;;;;;;;;;;;;;;;;;;
2151;;;;;;;;;;;;;;;;;;;;;
2161;;;;;;;;;;;;;;;;;;;;;
2171;;;;;;;;;;;;;;;;;;;;;
2181;;;;;;;;;;;;;;;;;;;;;
2191;;;;;;;;;;;;;;;;;;;;;
2201;;;;;;;;;;;;;;;;;;;;;
2211;;;;;;;;;;;;;;;;;;;;;
2221;;;;;;;;;;;;;;;;;;;;;
2231;;;;;;;;;;;;;;;;;;;;;
2241;;;;;;;;;;;;;;;;;;;;;
2251;;;;;;;;;;;;;;;;;;;;;
2261;;;;;;;;;;;;;;;;;;;;;
2271;;;;;;;;;;;;;;;;;;;;;
2281;;;;;;;;;;;;;;;;;;;;;
2291;;;;;;;;;;;;;;;;;;;;;
2301;;;;;;;;;;;;;;;;;;;;;
2311;;;;;;;;;;;;;;;;;;;;;
2321;;;;;;;;;;;;;;;;;;;;;
2331;;;;;;;;;;;;;;;;;;;;;
2341;;;;;;;;;;;;;;;;;;;;;
2351;;;;;;;;;;;;;;;;;;;;;
2361;;;;;;;;;;;;;;;;;;;;;
2371;;;;;;;;;;;;;;;;;;;;;
2381;;;;;;;;;;;;;;;;;;;;;
2391;;;;;;;;;;;;;;;;;;;;;
2401;;;;;;;;;;;;;;;;;;;;;
2411;;;;;;;;;;;;;;;;;;;;;
2421;;;;;;;;;;;;;;;;;;;;;
2431;;;;;;;;;;;;;;;;;;;;;
2441;;;;;;;;;;;;;;;;;;;;;
2451;;;;;;;;;;;;;;;;;;;;;
2461;;;;;;;;;;;;;;;;;;;;;
2471;;;;;;;;;;;;;;;;;;;;;
2481;;;;;;;;;;;;;;;;;;;;;
2491;;;;;;;;;;;;;;;;;;;;;
2495;;;;;;;;;;;;;;;;;;;;;

File: O2_1800rpm.txt
Index;Column 2 (V);Column 3 (V);Column 4 (V);Column 5 (V);Column 6 (V/s);Column 7 (V);Time (s);Potential applied (V);WE(1).Current (A);WE(1).Potential (V);Scan;Column 13 (RPM);ω (rad/s)
1;0.1;0.11;-0.9;-0.01;0.01;-0.00244;16214.9;-0.014801;-9.96399e-07;-0.0144958;3;1800;188.496
10;;;;;;;16217.1;-0.0367737;-1.09589e-05;-0.0364288;3;;
19;;;;;;;16219.3;-0.0587463;-6.27747e-05;-0.0583801;3;;
28;;;;;;;16221.5;-0.080719;-0.000190308;-0.0801392;3;;
37;;;;;;;16223.7;-0.102692;-0.000369293;-0.102264;3;;
46;;;;;;;16225.9;-0.124664;-0.000552979;-0.124207;3;;
55;;;;;;;16228.1;-0.146637;-0.000690918;-0.146179;3;;
64;;;;;;;16230.3;-0.16861;-0.000764465;-0.16806;3;;
73;;;;;;;16232.5;-0.190582;-0.000813293;-0.190002;3;;
82;;;;;;;16234.7;-0.212555;-0.000845642;-0.211884;3;;
91;;;;;;;16236.8;-0.234528;-0.000869141;-0.233887;3;;
100;;;;;;;16239;-0.2565;-0.000882568;-0.255798;3;;
109;;;;;;;16241.2;-0.278473;-0.00089325;-0.277649;3;;
118;;;;;;;16243.4;-0.300446;-0.000901794;-0.299591;3;;
127;;;;;;;16245.6;-0.322418;-0.000908813;-0.321564;3;;
136;;;;;;;16247.8;-0.344391;-0.000911255;-0.343506;3;;
145;;;;;;;16250;-0.366364;-0.000915222;-0.365448;3;;
154;;;;;;;16252.2;-0.388336;-0.000919495;-0.387421;3;;
163;;;;;;;16254.4;-0.410309;-0.000921631;-0.409302;3;;
172;;;;;;;16256.6;-0.432281;-0.000924988;-0.431213;3;;
181;;;;;;;16258.8;-0.454254;-0.00092804;-0.453094;3;;
190;;;;;;;16261;-0.476227;-0.000930176;-0.475098;3;;
199;;;;;;;16263.2;-0.498199;-0.000932617;-0.49704;3;;
208;;;;;;;16265.4;-0.520172;-0.000935364;-0.518951;3;;
217;;;;;;;16267.6;-0.542145;-0.000935364;-0.540863;3;;
226;;;;;;;16269.8;-0.564117;-0.000944519;-0.562775;3;;
235;;;;;;;16272;-0.58609;-0.000949707;-0.584808;3;;
244;;;;;;;16274.2;-0.608063;-0.000956116;-0.606689;3;;
253;;;;;;;16276.4;-0.630035;-0.000961914;-0.628693;3;;
262;;;;;;;16278.6;-0.652008;-0.000970459;-0.650635;3;;
271;;;;;;;16280.8;-0.673981;-0.000975647;-0.672607;3;;
280;;;;;;;16283;-0.695953;-0.000980835;-0.694519;3;;
289;;;;;;;16285.2;-0.717926;-0.000983582;-0.716522;3;;
298;;;;;;;16287.4;-0.739899;-0.000986328;-0.738556;3;;
307;;;;;;;16289.6;-0.761871;-0.000984497;-0.761108;3;;
316;;;;;;;16291.8;-0.783844;-0.000983887;-0.783081;3;;
325;;;;;;;16294;-0.805817;-0.000980225;-0.805664;3;;
334;;;;;;;16296.2;-0.827789;-0.000975647;-0.827026;3;;
343;;;;;;;16298.4;-0.849762;-0.000967712;-0.848083;3;;
352;;;;;;;16300.6;-0.871735;-0.000957642;-0.870361;3;;
361;;;;;;;16302.8;-0.893707;-0.000950012;-0.892944;3;;
370;;;;;;;16305;-0.886383;-0.000948181;-0.885315;3;;
379;;;;;;;16307.2;-0.86441;-0.000953674;-0.863647;3;;
388;;;;;;;16309.4;-0.842438;-0.000959778;-0.84198;3;;
397;;;;;;;16311.6;-0.820465;-0.000965881;-0.8203125;3;;
406;;;;;;;16313.8;-0.798492;-0.000968018;-0.797424;3;;
415;;;;;;;16315.9;-0.77652;-0.000970764;-0.776062;3;;
424;;;;;;;16318.1;-0.754547;-0.00097168;-0.754089;3;;
433;;;;;;;16320.3;-0.732574;-0.00097229;-0.731232;3;;
442;;;;;;;16322.5;-0.710602;-0.000968933;-0.709198;3;;
451;;;;;;;16324.7;-0.688629;-0.000964355;-0.687195;3;;
460;;;;;;;16326.9;-0.666656;-0.000961304;-0.665283;3;;
469;;;;;;;16329.1;-0.644684;-0.000956116;-0.643311;3;;
478;;;;;;;16331.3;-0.622711;-0.000949707;-0.621338;3;;
487;;;;;;;16333.5;-0.600739;-0.000944214;-0.599396;3;;
496;;;;;;;16335.7;-0.578766;-0.000939026;-0.577484;3;;
505;;;;;;;16337.9;-0.556793;-0.000935974;-0.555511;3;;
514;;;;;;;16340.1;-0.534821;-0.000931091;-0.533569;3;;
523;;;;;;;16342.3;-0.512848;-0.000928345;-0.511688;3;;
532;;;;;;;16344.5;-0.490875;-0.000925293;-0.489746;3;;
541;;;;;;;16346.7;-0.468903;-0.000922852;-0.467773;3;;
550;;;;;;;16348.9;-0.44693;-0.000920105;-0.445862;3;;
559;;;;;;;16351.1;-0.424957;-0.000918274;-0.42395;3;;
568;;;;;;;16353.3;-0.402985;-0.000914917;-0.401978;3;;
577;;;;;;;16355.5;-0.381012;-0.00091217;-0.380035;3;;
586;;;;;;;16357.7;-0.359039;-0.000907898;-0.358154;3;;
595;;;;;;;16359.9;-0.337067;-0.000904541;-0.336182;3;;
604;;;;;;;16362.1;-0.315094;-0.000898132;-0.314301;3;;
613;;;;;;;16364.3;-0.293121;-0.000892944;-0.292267;3;;
622;;;;;;;16366.5;-0.271149;-0.000884094;-0.270386;3;;
631;;;;;;;16368.7;-0.249176;-0.000874329;-0.248505;3;;
640;;;;;;;16370.9;-0.227203;-0.00085907;-0.226501;3;;
649;;;;;;;16373.1;-0.205231;-0.000834656;-0.20459;3;;
658;;;;;;;16375.3;-0.183258;-0.000794678;-0.182678;3;;
667;;;;;;;16377.5;-0.161285;-0.000724182;-0.160736;3;;
676;;;;;;;16379.7;-0.139313;-0.000608826;-0.138824;3;;
685;;;;;;;16381.9;-0.11734;-0.000453156;-0.116852;3;;
694;;;;;;;16384.1;-0.0953674;-0.000281219;-0.0949402;3;;
703;;;;;;;16386.3;-0.0733948;-0.000129669;-0.0730591;3;;
712;;;;;;;16388.5;-0.0514221;-3.56964e-05;-0.0510864;3;;
721;;;;;;;16390.7;-0.0294495;-4.47205e-06;-0.0291077;3;;
730;;;;;;;16392.9;-0.00747681;7.26624e-07;-0.0072052;3;;
739;;;;;;;16395.1;0.0144958;1.37695e-06;0.0147614;3;;
748;;;;;;;16397.2;0.0364685;1.51306e-06;0.0367554;3;;
757;;;;;;;16399.4;0.0584412;1.62445e-06;0.0584412;3;;
766;;;;;;;16401.6;0.0804138;1.74683e-06;0.0804443;3;;
775;;;;;;;16403.8;0.102386;1.94946e-06;0.102295;3;;
784;;;;;;;16406;0.0999451;1.39465e-06;0.099884;3;;
793;;;;;;;16408.2;0.0779724;9.88159e-07;0.0779724;3;;
802;;;;;;;16410.4;0.0559998;7.7301e-07;0.0559387;3;;
811;;;;;;;16412.6;0.0340271;6.13403e-07;0.0342957;3;;
820;;;;;;;16414.8;0.0120544;4.11377e-07;0.0123566;3;;
829;;;;;;;16417;-0.00991821;-4.12598e-07;-0.00960083;3;;
838;;;;;;;;;;;;;
847;;;;;;;;;;;;;
856;;;;;;;;;;;;;
865;;;;;;;;;;;;;
874;;;;;;;;;;;;;
883;;;;;;;;;;;;;
892;;;;;;;;;;;;;
901;;;;;;;;;;;;;
910;;;;;;;;;;;;;
919;;;;;;;;;;;;;
928;;;;;;;;;;;;;
937;;;;;;;;;;;;;
946;;;;;;;;;;;;;
955;;;;;;;;;;;;;
964;;;;;;;;;;;;;
973;;;;;;;;;;;;;
982;;;;;;;;;;;;;
991;;;;;;;;;;;;;
1000;;;;;;;;;;;;;
1009;;;;;;;;;;;;;
1018;;;;;;;;;;;;;
1027;;;;;;;;;;;;;
1036;;;;;;;;;;;;;
1045;;;;;;;;;;;;;
1054;;;;;;;;;;;;;
1063;;;;;;;;;;;;;
1072;;;;;;;;;;;;;
1081;;;;;;;;;;;;;
1090;;;;;;;;;;;;;
1099;;;;;;;;;;;;;
1108;;;;;;;;;;;;;
1117;;;;;;;;;;;;;
1126;;;;;;;;;;;;;
1135;;;;;;;;;;;;;
1144;;;;;;;;;;;;;
1153;;;;;;;;;;;;;
1162;;;;;;;;;;;;;
1171;;;;;;;;;;;;;
1180;;;;;;;;;;;;;
1189;;;;;;;;;;;;;
1198;;;;;;;;;;;;;
1207;;;;;;;;;;;;;
1216;;;;;;;;;;;;;
1225;;;;;;;;;;;;;
1234;;;;;;;;;;;;;
1243;;;;;;;;;;;;;
1252;;;;;;;;;;;;;
1261;;;;;;;;;;;;;
1270;;;;;;;;;;;;;
1279;;;;;;;;;;;;;
1288;;;;;;;;;;;;;
1297;;;;;;;;;;;;;
1306;;;;;;;;;;;;;
1315;;;;;;;;;;;;;
1324;;;;;;;;;;;;;
1333;;;;;;;;;;;;;
1342;;;;;;;;;;;;;
1351;;;;;;;;;;;;;
1360;;;;;;;;;;;;;
1369;;;;;;;;;;;;;
1378;;;;;;;;;;;;;
1387;;;;;;;;;;;;;
1396;;;;;;;;;;;;;
1405;;;;;;;;;;;;;
1414;;;;;;;;;;;;;
1423;;;;;;;;;;;;;
1432;;;;;;;;;;;;;
1441;;;;;;;;;;;;;
1450;;;;;;;;;;;;;
1459;;;;;;;;;;;;;
1468;;;;;;;;;;;;;
1477;;;;;;;;;;;;;
1486;;;;;;;;;;;;;
1495;;;;;;;;;;;;;
1504;;;;;;;;;;;;;
1513;;;;;;;;;;;;;
1522;;;;;;;;;;;;;
1531;;;;;;;;;;;;;
1540;;;;;;;;;;;;;
1549;;;;;;;;;;;;;
1558;;;;;;;;;;;;;
1567;;;;;;;;;;;;;
1576;;;;;;;;;;;;;
1585;;;;;;;;;;;;;
1594;;;;;;;;;;;;;
1603;;;;;;;;;;;;;
1612;;;;;;;;;;;;;
1621;;;;;;;;;;;;;
1630;;;;;;;;;;;;;
1639;;;;;;;;;;;;;
1648;;;;;;;;;;;;;
1657;;;;;;;;;;;;;
1666;;;;;;;;;;;;;
1675;;;;;;;;;;;;;
1684;;;;;;;;;;;;;
1693;;;;;;;;;;;;;
1702;;;;;;;;;;;;;
1711;;;;;;;;;;;;;
1720;;;;;;;;;;;;;
1729;;;;;;;;;;;;;
1738;;;;;;;;;;;;;
1747;;;;;;;;;;;;;
1756;;;;;;;;;;;;;
1765;;;;;;;;;;;;;
1774;;;;;;;;;;;;;
1783;;;;;;;;;;;;;
1792;;;;;;;;;;;;;
1801;;;;;;;;;;;;;
1810;;;;;;;;;;;;;
1819;;;;;;;;;;;;;
1828;;;;;;;;;;;;;
1837;;;;;;;;;;;;;
1846;;;;;;;;;;;;;
1855;;;;;;;;;;;;;
1864;;;;;;;;;;;;;
1873;;;;;;;;;;;;;
1882;;;;;;;;;;;;;
1891;;;;;;;;;;;;;
1900;;;;;;;;;;;;;
1909;;;;;;;;;;;;;
1918;;;;;;;;;;;;;
1927;;;;;;;;;;;;;
1936;;;;;;;;;;;;;
1945;;;;;;;;;;;;;
1954;;;;;;;;;;;;;
1963;;;;;;;;;;;;;
1972;;;;;;;;;;;;;
1981;;;;;;;;;;;;;
1990;;;;;;;;;;;;;
1999;;;;;;;;;;;;;
2008;;;;;;;;;;;;;
2017;;;;;;;;;;;;;
2026;;;;;;;;;;;;;
2035;;;;;;;;;;;;;
2044;;;;;;;;;;;;;
2053;;;;;;;;;;;;;
2062;;;;;;;;;;;;;
2071;;;;;;;;;;;;;
2080;;;;;;;;;;;;;
2089;;;;;;;;;;;;;
2098;;;;;;;;;;;;;
2107;;;;;;;;;;;;;
2116;;;;;;;;;;;;;
2125;;;;;;;;;;;;;
2134;;;;;;;;;;;;;
2143;;;;;;;;;;;;;
2152;;;;;;;;;;;;;
2161;;;;;;;;;;;;;
2170;;;;;;;;;;;;;
2179;;;;;;;;;;;;;
2188;;;;;;;;;;;;;
2197;;;;;;;;;;;;;
2206;;;;;;;;;;;;;
2215;;;;;;;;;;;;;
2224;;;;;;;;;;;;;
2233;;;;;;;;;;;;;
2242;;;;;;;;;;;;;
2251;;;;;;;;;;;;;
2260;;;;;;;;;;;;;
2269;;;;;;;;;;;;;
2278;;;;;;;;;;;;;
2287;;;;;;;;;;;;;
2296;;;;;;;;;;;;;
2305;;;;;;;;;;;;;
2314;;;;;;;;;;;;;
2323;;;;;;;;;;;;;
2332;;;;;;;;;;;;;
2341;;;;;;;;;;;;;
2350;;;;;;;;;;;;;
2359;;;;;;;;;;;;;
2368;;;;;;;;;;;;;
2377;;;;;;;;;;;;;
2386;;;;;;;;;;;;;
2395;;;;;;;;;;;;;
2404;;;;;;;;;;;;;
2413;;;;;;;;;;;;;
2422;;;;;;;;;;;;;
2431;;;;;;;;;;;;;
2440;;;;;;;;;;;;;
2449;;;;;;;;;;;;;
2458;;;;;;;;;;;;;
2467;;;;;;;;;;;;;
2476;;;;;;;;;;;;;
2485;;;;;;;;;;;;;
2494;;;;;;;;;;;;;
2503;;;;;;;;;;;;;
2512;;;;;;;;;;;;;
2521;;;;;;;;;;;;;
2530;;;;;;;;;;;;;
2536;;;;;;;;;;;;;